pid,stim,hole_width,hole_class,condition,trial,goes_in,num_bounces,response,rt
0095f15b,B_0_0,200,far miss,7,26,False,0,False,1.439
0095f15b,B_0_1,100,far in,7,45,True,0,False,4.3839999999999995
0095f15b,B_0_10,200,far in,7,24,True,0,True,1.5230000000000001
0095f15b,B_0_11,100,close in,7,41,True,0,True,1.492
0095f15b,B_0_12,200,close in,7,33,True,0,True,3.008
0095f15b,B_0_13,100,close miss,7,34,False,0,False,1.493
0095f15b,B_0_14,200,close miss,7,51,False,0,False,1.165
0095f15b,B_0_15,100,far miss,7,54,False,0,False,0.687
0095f15b,B_0_2,200,far in,7,18,True,0,True,2.66
0095f15b,B_0_3,100,close in,7,38,True,0,True,1.23
0095f15b,B_0_4,200,close in,7,44,True,0,True,1.045
0095f15b,B_0_5,100,close miss,7,39,False,0,False,1.4340000000000002
0095f15b,B_0_6,200,close miss,7,1,False,0,False,4.315
0095f15b,B_0_7,100,far miss,7,32,False,0,False,1.535
0095f15b,B_0_8,200,far miss,7,15,False,0,False,4.9430000000000005
0095f15b,B_0_9,100,far in,7,48,True,0,True,0.8270000000000001
0095f15b,B_1_0,200,far miss,7,40,False,1,False,3.648
0095f15b,B_1_1,100,far in,7,36,True,1,False,2.951
0095f15b,B_1_10,200,far in,7,52,True,1,True,1.3230000000000002
0095f15b,B_1_11,100,close in,7,19,True,1,False,3.41
0095f15b,B_1_12,200,close in,7,46,True,1,True,1.744
0095f15b,B_1_13,100,close miss,7,5,False,1,False,4.678999999999999
0095f15b,B_1_14,200,close miss,7,17,False,1,False,2.571
0095f15b,B_1_15,100,far miss,7,9,False,1,False,1.023
0095f15b,B_1_2,200,far in,7,12,True,1,True,1.7069999999999999
0095f15b,B_1_3,100,close in,7,30,True,1,True,2.6430000000000002
0095f15b,B_1_4,200,close in,7,55,True,1,True,1.95
0095f15b,B_1_5,100,close miss,7,47,False,1,True,1.7480000000000002
0095f15b,B_1_6,200,close miss,7,43,False,1,True,2.475
0095f15b,B_1_7,100,far miss,7,37,False,1,False,2.085
0095f15b,B_1_8,200,far miss,7,31,False,1,True,1.761
0095f15b,B_1_9,100,far in,7,3,True,1,True,4.336
0095f15b,B_2_0,200,far miss,7,22,False,2,False,1.426
0095f15b,B_2_1,100,far in,7,10,True,2,True,2.575
0095f15b,B_2_10,200,far in,7,20,True,2,True,3.437
0095f15b,B_2_11,100,close in,7,53,True,2,True,2.0709999999999997
0095f15b,B_2_12,200,close in,7,16,True,2,False,2.092
0095f15b,B_2_13,100,close miss,7,2,False,2,False,5.2989999999999995
0095f15b,B_2_14,200,close miss,7,6,False,2,True,3.595
0095f15b,B_2_15,100,far miss,7,13,False,2,False,1.777
0095f15b,B_2_2,200,far in,7,23,True,2,True,1.972
0095f15b,B_2_3,100,close in,7,50,True,2,False,3.093
0095f15b,B_2_4,200,close in,7,29,True,2,True,1.7369999999999999
0095f15b,B_2_5,100,close miss,7,8,False,2,False,5.836
0095f15b,B_2_6,200,close miss,7,4,False,2,True,3.9560000000000004
0095f15b,B_2_7,100,far miss,7,11,False,2,False,5.751
0095f15b,B_2_8,200,far miss,7,25,False,2,False,0.883
0095f15b,B_2_9,100,far in,7,27,True,2,False,1.38
010e7a86,B_0_0,200,close in,3,50,True,0,True,0.738
010e7a86,B_0_1,100,close miss,3,36,False,0,False,0.9
010e7a86,B_0_10,200,close miss,3,46,False,0,True,0.958
010e7a86,B_0_11,100,far miss,3,19,False,0,False,0.9
010e7a86,B_0_12,200,far miss,3,24,False,0,False,0.631
010e7a86,B_0_13,100,far in,3,39,True,0,True,1.093
010e7a86,B_0_14,200,far in,3,37,True,0,True,1.042
010e7a86,B_0_15,100,close in,3,29,True,0,True,6.72
010e7a86,B_0_2,200,close miss,3,20,False,0,True,1.22
010e7a86,B_0_3,100,far miss,3,11,False,0,False,6.192
010e7a86,B_0_4,200,far miss,3,8,False,0,False,5.303999999999999
010e7a86,B_0_5,100,far in,3,34,True,0,True,1.068
010e7a86,B_0_6,200,far in,3,25,True,0,True,1.023
010e7a86,B_0_7,100,close in,3,43,True,0,True,23.476
010e7a86,B_0_8,200,close in,3,32,True,0,True,1.425
010e7a86,B_0_9,100,close miss,3,23,False,0,False,6.82
010e7a86,B_1_0,200,close in,3,6,True,1,False,6.818
010e7a86,B_1_1,100,close miss,3,30,False,1,False,8.894
010e7a86,B_1_10,200,close miss,3,3,False,1,False,5.8229999999999995
010e7a86,B_1_11,100,far miss,3,13,False,1,False,0.914
010e7a86,B_1_12,200,far miss,3,33,False,1,False,1.7409999999999999
010e7a86,B_1_13,100,far in,3,48,True,1,True,1.262
010e7a86,B_1_14,200,far in,3,40,True,1,True,1.409
010e7a86,B_1_15,100,close in,3,52,True,1,True,1.746
010e7a86,B_1_2,200,close miss,3,26,False,1,False,5.175
010e7a86,B_1_3,100,far miss,3,15,False,1,False,2.07
010e7a86,B_1_4,200,far miss,3,17,False,1,False,1.002
010e7a86,B_1_5,100,far in,3,38,True,1,False,8.127
010e7a86,B_1_6,200,far in,3,5,True,1,True,4.2410000000000005
010e7a86,B_1_7,100,close in,3,41,True,1,False,7.665
010e7a86,B_1_8,200,close in,3,53,True,1,False,8.321
010e7a86,B_1_9,100,close miss,3,1,False,1,False,5.039
010e7a86,B_2_0,200,close in,3,22,True,2,True,3.36
010e7a86,B_2_1,100,close miss,3,51,False,2,True,2.233
010e7a86,B_2_10,200,close miss,3,2,False,2,True,1.798
010e7a86,B_2_11,100,far miss,3,47,False,2,False,1.706
010e7a86,B_2_12,200,far miss,3,54,False,2,False,3.722
010e7a86,B_2_13,100,far in,3,4,True,2,True,19.948
010e7a86,B_2_14,200,far in,3,18,True,2,True,2.404
010e7a86,B_2_15,100,close in,3,31,True,2,True,9.057
010e7a86,B_2_2,200,close miss,3,9,False,2,False,7.121
010e7a86,B_2_3,100,far miss,3,27,False,2,False,1.892
010e7a86,B_2_4,200,far miss,3,16,False,2,False,1.002
010e7a86,B_2_5,100,far in,3,55,True,2,True,2.677
010e7a86,B_2_6,200,far in,3,10,True,2,True,4.61
010e7a86,B_2_7,100,close in,3,44,True,2,True,1.733
010e7a86,B_2_8,200,close in,3,45,True,2,False,1.433
010e7a86,B_2_9,100,close miss,3,12,False,2,True,4.123
0116df42,B_0_0,100,far in,0,10,True,0,True,0.992
0116df42,B_0_1,200,far in,0,30,True,0,True,1.026
0116df42,B_0_10,100,close in,0,52,True,0,True,1.156
0116df42,B_0_11,200,close in,0,41,True,0,True,1.091
0116df42,B_0_12,100,close miss,0,12,False,0,False,3.889
0116df42,B_0_13,200,close miss,0,13,False,0,True,0.893
0116df42,B_0_14,100,far miss,0,29,False,0,False,1.635
0116df42,B_0_15,200,far miss,0,8,False,0,True,6.055
0116df42,B_0_2,100,close in,0,18,True,0,True,0.574
0116df42,B_0_3,200,close in,0,44,True,0,True,0.643
0116df42,B_0_4,100,close miss,0,16,False,0,False,1.993
0116df42,B_0_5,200,close miss,0,2,False,0,False,2.667
0116df42,B_0_6,100,far miss,0,38,False,0,False,1.079
0116df42,B_0_7,200,far miss,0,45,False,0,False,2.445
0116df42,B_0_8,100,far in,0,36,True,0,True,0.9109999999999999
0116df42,B_0_9,200,far in,0,40,True,0,True,0.86
0116df42,B_1_0,100,far in,0,4,True,1,False,6.601
0116df42,B_1_1,200,far in,0,5,True,1,False,2.66
0116df42,B_1_10,100,close in,0,27,True,1,True,1.276
0116df42,B_1_11,200,close in,0,23,True,1,True,0.613
0116df42,B_1_12,100,close miss,0,32,False,1,True,0.752
0116df42,B_1_13,200,close miss,0,24,False,1,True,0.491
0116df42,B_1_14,100,far miss,0,47,False,1,False,1.075
0116df42,B_1_15,200,far miss,0,46,False,1,False,1.983
0116df42,B_1_2,100,close in,0,9,True,1,True,1.551
0116df42,B_1_3,200,close in,0,55,True,1,True,2.865
0116df42,B_1_4,100,close miss,0,34,False,1,True,0.62
0116df42,B_1_5,200,close miss,0,53,False,1,False,0.9
0116df42,B_1_6,100,far miss,0,43,False,1,False,0.96
0116df42,B_1_7,200,far miss,0,20,False,1,False,1.3869999999999998
0116df42,B_1_8,100,far in,0,17,True,1,True,0.534
0116df42,B_1_9,200,far in,0,39,True,1,True,0.581
0116df42,B_2_0,100,far in,0,3,True,2,True,5.145
0116df42,B_2_1,200,far in,0,1,True,2,True,7.202999999999999
0116df42,B_2_10,100,close in,0,50,True,2,True,2.327
0116df42,B_2_11,200,close in,0,33,True,2,False,1.547
0116df42,B_2_12,100,close miss,0,51,False,2,False,0.643
0116df42,B_2_13,200,close miss,0,26,False,2,False,1.893
0116df42,B_2_14,100,far miss,0,31,False,2,False,1.102
0116df42,B_2_15,200,far miss,0,19,False,2,True,1.5390000000000001
0116df42,B_2_2,100,close in,0,6,True,2,False,1.433
0116df42,B_2_3,200,close in,0,11,True,2,True,5.9110000000000005
0116df42,B_2_4,100,close miss,0,22,False,2,True,3.2110000000000003
0116df42,B_2_5,200,close miss,0,37,False,2,False,2.188
0116df42,B_2_6,100,far miss,0,48,False,2,False,0.9229999999999999
0116df42,B_2_7,200,far miss,0,54,False,2,False,1.4409999999999998
0116df42,B_2_8,100,far in,0,15,True,2,True,4.112
0116df42,B_2_9,200,far in,0,25,True,2,True,0.659
02b3e7f9,B_0_0,100,far miss,6,23,False,0,False,0.48
02b3e7f9,B_0_1,200,far miss,6,5,False,0,False,1.148
02b3e7f9,B_0_10,100,far in,6,22,True,0,True,0.503
02b3e7f9,B_0_11,200,far in,6,41,True,0,True,0.536
02b3e7f9,B_0_12,100,close in,6,33,True,0,True,0.667
02b3e7f9,B_0_13,200,close in,6,32,True,0,True,0.49700000000000005
02b3e7f9,B_0_14,100,close miss,6,40,False,0,True,1.59
02b3e7f9,B_0_15,200,close miss,6,2,False,0,False,2.1109999999999998
02b3e7f9,B_0_2,100,far in,6,18,True,0,True,0.565
02b3e7f9,B_0_3,200,far in,6,6,True,0,True,0.613
02b3e7f9,B_0_4,100,close in,6,29,True,0,True,1.328
02b3e7f9,B_0_5,200,close in,6,15,True,0,True,0.64
02b3e7f9,B_0_6,100,close miss,6,36,False,0,True,1.2309999999999999
02b3e7f9,B_0_7,200,close miss,6,46,False,0,False,0.591
02b3e7f9,B_0_8,100,far miss,6,9,False,0,False,0.528
02b3e7f9,B_0_9,200,far miss,6,39,False,0,False,0.342
02b3e7f9,B_1_0,100,far miss,6,38,False,1,False,0.62
02b3e7f9,B_1_1,200,far miss,6,25,False,1,False,0.8640000000000001
02b3e7f9,B_1_10,100,far in,6,47,True,1,True,0.48200000000000004
02b3e7f9,B_1_11,200,far in,6,34,True,1,True,0.429
02b3e7f9,B_1_12,100,close in,6,19,True,1,True,1.317
02b3e7f9,B_1_13,200,close in,6,52,True,1,True,0.45299999999999996
02b3e7f9,B_1_14,100,close miss,6,31,False,1,False,1.405
02b3e7f9,B_1_15,200,close miss,6,16,False,1,False,0.62
02b3e7f9,B_1_2,100,far in,6,8,True,1,True,0.7490000000000001
02b3e7f9,B_1_3,200,far in,6,45,True,1,True,0.354
02b3e7f9,B_1_4,100,close in,6,50,True,1,True,1.429
02b3e7f9,B_1_5,200,close in,6,24,True,1,False,1.361
02b3e7f9,B_1_6,100,close miss,6,53,False,1,False,0.401
02b3e7f9,B_1_7,200,close miss,6,37,False,1,True,1.3359999999999999
02b3e7f9,B_1_8,100,far miss,6,20,False,1,False,0.541
02b3e7f9,B_1_9,200,far miss,6,10,False,1,False,0.765
02b3e7f9,B_2_0,100,far miss,6,1,False,2,False,1.163
02b3e7f9,B_2_1,200,far miss,6,54,False,2,False,0.998
02b3e7f9,B_2_10,100,far in,6,3,True,2,True,1.9909999999999999
02b3e7f9,B_2_11,200,far in,6,27,True,2,True,1.22
02b3e7f9,B_2_12,100,close in,6,30,True,2,True,1.003
02b3e7f9,B_2_13,200,close in,6,51,True,2,True,0.156
02b3e7f9,B_2_14,100,close miss,6,43,False,2,True,1.5590000000000002
02b3e7f9,B_2_15,200,close miss,6,17,False,2,False,1.023
02b3e7f9,B_2_2,100,far in,6,4,True,2,False,1.659
02b3e7f9,B_2_3,200,far in,6,48,True,2,True,1.358
02b3e7f9,B_2_4,100,close in,6,26,True,2,True,0.9940000000000001
02b3e7f9,B_2_5,200,close in,6,11,True,2,True,1.3330000000000002
02b3e7f9,B_2_6,100,close miss,6,12,False,2,False,0.93
02b3e7f9,B_2_7,200,close miss,6,13,False,2,False,0.716
02b3e7f9,B_2_8,100,far miss,6,44,False,2,False,0.7090000000000001
02b3e7f9,B_2_9,200,far miss,6,55,False,2,False,0.521
02f73e20,B_0_0,200,close in,3,3,True,0,True,0.86
02f73e20,B_0_1,100,close miss,3,19,False,0,False,1.3159999999999998
02f73e20,B_0_10,200,close miss,3,53,False,0,True,0.5670000000000001
02f73e20,B_0_11,100,far miss,3,30,False,0,False,1.5959999999999999
02f73e20,B_0_12,200,far miss,3,34,False,0,False,1.675
02f73e20,B_0_13,100,far in,3,33,True,0,True,0.732
02f73e20,B_0_14,200,far in,3,43,True,0,True,0.551
02f73e20,B_0_15,100,close in,3,26,True,0,True,0.972
02f73e20,B_0_2,200,close miss,3,36,False,0,True,1.403
02f73e20,B_0_3,100,far miss,3,24,False,0,False,3.1689999999999996
02f73e20,B_0_4,200,far miss,3,50,False,0,False,1.185
02f73e20,B_0_5,100,far in,3,17,True,0,True,0.64
02f73e20,B_0_6,200,far in,3,40,True,0,True,0.485
02f73e20,B_0_7,100,close in,3,48,True,0,True,0.524
02f73e20,B_0_8,200,close in,3,8,True,0,True,1.71
02f73e20,B_0_9,100,close miss,3,4,False,0,False,0.738
02f73e20,B_1_0,200,close in,3,20,True,1,True,0.8140000000000001
02f73e20,B_1_1,100,close miss,3,1,False,1,True,0.878
02f73e20,B_1_10,200,close miss,3,23,False,1,True,1.693
02f73e20,B_1_11,100,far miss,3,18,False,1,False,2.679
02f73e20,B_1_12,200,far miss,3,55,False,1,False,1.0090000000000001
02f73e20,B_1_13,100,far in,3,10,True,1,True,2.403
02f73e20,B_1_14,200,far in,3,47,True,1,True,2.374
02f73e20,B_1_15,100,close in,3,31,True,1,True,2.177
02f73e20,B_1_2,200,close miss,3,44,False,1,True,1.375
02f73e20,B_1_3,100,far miss,3,6,False,1,False,1.355
02f73e20,B_1_4,200,far miss,3,9,False,1,True,2.345
02f73e20,B_1_5,100,far in,3,38,True,1,True,2.22
02f73e20,B_1_6,200,far in,3,11,True,1,True,1.003
02f73e20,B_1_7,100,close in,3,13,True,1,True,0.8140000000000001
02f73e20,B_1_8,200,close in,3,39,True,1,True,0.986
02f73e20,B_1_9,100,close miss,3,37,False,1,True,2.784
02f73e20,B_2_0,200,close in,3,54,True,2,True,2.177
02f73e20,B_2_1,100,close miss,3,15,False,2,False,1.36
02f73e20,B_2_10,200,close miss,3,25,False,2,False,1.788
02f73e20,B_2_11,100,far miss,3,27,False,2,False,2.88
02f73e20,B_2_12,200,far miss,3,41,False,2,True,1.476
02f73e20,B_2_13,100,far in,3,29,True,2,False,2.125
02f73e20,B_2_14,200,far in,3,52,True,2,True,1.075
02f73e20,B_2_15,100,close in,3,22,True,2,False,1.83
02f73e20,B_2_2,200,close miss,3,5,False,2,False,3.0669999999999997
02f73e20,B_2_3,100,far miss,3,12,False,2,True,2.904
02f73e20,B_2_4,200,far miss,3,32,False,2,False,3.793
02f73e20,B_2_5,100,far in,3,45,True,2,True,1.599
02f73e20,B_2_6,200,far in,3,51,True,2,True,1.078
02f73e20,B_2_7,100,close in,3,46,True,2,False,1.534
02f73e20,B_2_8,200,close in,3,16,True,2,True,1.645
02f73e20,B_2_9,100,close miss,3,2,False,2,True,1.121
0337e679,B_0_0,100,close miss,4,40,False,0,False,2.311
0337e679,B_0_1,200,close miss,4,50,False,0,False,11.775
0337e679,B_0_10,100,far miss,4,11,False,0,False,2.403
0337e679,B_0_11,200,far miss,4,3,False,0,False,2.859
0337e679,B_0_12,100,far in,4,51,True,0,True,7.3
0337e679,B_0_13,200,far in,4,25,True,0,True,0.8079999999999999
0337e679,B_0_14,100,close in,4,19,True,0,False,2.5639999999999996
0337e679,B_0_15,200,close in,4,30,True,0,False,5.9879999999999995
0337e679,B_0_2,100,far miss,4,20,False,0,False,1.334
0337e679,B_0_3,200,far miss,4,41,False,0,False,1.011
0337e679,B_0_4,100,far in,4,46,True,0,True,0.6609999999999999
0337e679,B_0_5,200,far in,4,13,True,0,True,0.873
0337e679,B_0_6,100,close in,4,43,True,0,True,0.991
0337e679,B_0_7,200,close in,4,39,True,0,True,1.469
0337e679,B_0_8,100,close miss,4,8,False,0,False,2.972
0337e679,B_0_9,200,close miss,4,29,False,0,False,1.23
0337e679,B_1_0,100,close miss,4,55,False,1,True,0.9059999999999999
0337e679,B_1_1,200,close miss,4,38,False,1,True,0.619
0337e679,B_1_10,100,far miss,4,48,False,1,False,1.7990000000000002
0337e679,B_1_11,200,far miss,4,9,False,1,True,1.1159999999999999
0337e679,B_1_12,100,far in,4,1,True,1,True,1.494
0337e679,B_1_13,200,far in,4,33,True,1,True,0.723
0337e679,B_1_14,100,close in,4,24,True,1,True,2.109
0337e679,B_1_15,200,close in,4,10,True,1,False,7.24
0337e679,B_1_2,100,far miss,4,54,False,1,False,1.4969999999999999
0337e679,B_1_3,200,far miss,4,52,False,1,False,4.467
0337e679,B_1_4,100,far in,4,26,True,1,False,2.177
0337e679,B_1_5,200,far in,4,37,True,1,True,1.048
0337e679,B_1_6,100,close in,4,45,True,1,True,1.305
0337e679,B_1_7,200,close in,4,31,True,1,True,6.356
0337e679,B_1_8,100,close miss,4,18,False,1,True,1.093
0337e679,B_1_9,200,close miss,4,53,False,1,True,3.3489999999999998
0337e679,B_2_0,100,close miss,4,44,False,2,True,0.924
0337e679,B_2_1,200,close miss,4,12,False,2,False,2.508
0337e679,B_2_10,100,far miss,4,23,False,2,False,1.595
0337e679,B_2_11,200,far miss,4,36,False,2,True,1.044
0337e679,B_2_12,100,far in,4,15,True,2,True,3.055
0337e679,B_2_13,200,far in,4,17,True,2,True,0.479
0337e679,B_2_14,100,close in,4,5,True,2,True,1.6340000000000001
0337e679,B_2_15,200,close in,4,4,True,2,True,1.587
0337e679,B_2_2,100,far miss,4,27,False,2,True,0.643
0337e679,B_2_3,200,far miss,4,6,False,2,False,2.039
0337e679,B_2_4,100,far in,4,16,True,2,False,2.029
0337e679,B_2_5,200,far in,4,22,True,2,True,0.768
0337e679,B_2_6,100,close in,4,47,True,2,False,2.18
0337e679,B_2_7,200,close in,4,32,True,2,True,0.93
0337e679,B_2_8,100,close miss,4,34,False,2,False,0.9620000000000001
0337e679,B_2_9,200,close miss,4,2,False,2,False,2.456
059a5775,B_0_0,200,far in,1,4,True,0,True,1.4380000000000002
059a5775,B_0_1,100,close in,1,30,True,0,True,1.6219999999999999
059a5775,B_0_10,200,close in,1,16,True,0,True,0.44299999999999995
059a5775,B_0_11,100,close miss,1,37,False,0,True,1.083
059a5775,B_0_12,200,close miss,1,40,False,0,False,1.5190000000000001
059a5775,B_0_13,100,far miss,1,3,False,0,False,2.5469999999999997
059a5775,B_0_14,200,far miss,1,10,False,0,False,1.193
059a5775,B_0_15,100,far in,1,18,True,0,True,0.888
059a5775,B_0_2,200,close in,1,38,True,0,True,2.029
059a5775,B_0_3,100,close miss,1,45,False,0,False,1.601
059a5775,B_0_4,200,close miss,1,39,False,0,True,0.812
059a5775,B_0_5,100,far miss,1,48,False,0,False,1.496
059a5775,B_0_6,200,far miss,1,19,False,0,True,3.19
059a5775,B_0_7,100,far in,1,1,True,0,True,2.239
059a5775,B_0_8,200,far in,1,15,True,0,True,1.609
059a5775,B_0_9,100,close in,1,26,True,0,True,2.211
059a5775,B_1_0,200,far in,1,11,True,1,False,1.734
059a5775,B_1_1,100,close in,1,32,True,1,True,2.4
059a5775,B_1_10,200,close in,1,51,True,1,False,1.254
059a5775,B_1_11,100,close miss,1,20,False,1,True,2.142
059a5775,B_1_12,200,close miss,1,46,False,1,False,1.385
059a5775,B_1_13,100,far miss,1,43,False,1,True,4.31
059a5775,B_1_14,200,far miss,1,36,False,1,True,5.051
059a5775,B_1_15,100,far in,1,25,True,1,False,2.971
059a5775,B_1_2,200,close in,1,13,True,1,True,0.93
059a5775,B_1_3,100,close miss,1,22,False,1,True,1.555
059a5775,B_1_4,200,close miss,1,52,False,1,False,2.37
059a5775,B_1_5,100,far miss,1,12,False,1,False,2.193
059a5775,B_1_6,200,far miss,1,44,False,1,True,1.771
059a5775,B_1_7,100,far in,1,41,True,1,False,1.944
059a5775,B_1_8,200,far in,1,29,True,1,True,1.9240000000000002
059a5775,B_1_9,100,close in,1,5,True,1,False,2.059
059a5775,B_2_0,200,far in,1,8,True,2,True,1.2429999999999999
059a5775,B_2_1,100,close in,1,33,True,2,False,2.5540000000000003
059a5775,B_2_10,200,close in,1,55,True,2,True,2.528
059a5775,B_2_11,100,close miss,1,27,False,2,False,2.66
059a5775,B_2_12,200,close miss,1,34,False,2,True,4.379
059a5775,B_2_13,100,far miss,1,2,False,2,True,1.6669999999999998
059a5775,B_2_14,200,far miss,1,50,False,2,True,3.4619999999999997
059a5775,B_2_15,100,far in,1,53,True,2,True,2.373
059a5775,B_2_2,200,close in,1,54,True,2,False,1.4580000000000002
059a5775,B_2_3,100,close miss,1,17,False,2,True,2.4730000000000003
059a5775,B_2_4,200,close miss,1,24,False,2,True,1.78
059a5775,B_2_5,100,far miss,1,31,False,2,True,1.689
059a5775,B_2_6,200,far miss,1,47,False,2,False,1.805
059a5775,B_2_7,100,far in,1,6,True,2,True,3.0069999999999997
059a5775,B_2_8,200,far in,1,9,True,2,True,0.516
059a5775,B_2_9,100,close in,1,23,True,2,True,2.924
06e54e89,B_0_0,100,close in,2,53,True,0,True,0.733
06e54e89,B_0_1,200,close in,2,19,True,0,True,2.6069999999999998
06e54e89,B_0_10,100,close miss,2,22,False,0,True,0.672
06e54e89,B_0_11,200,close miss,2,20,False,0,True,1.3519999999999999
06e54e89,B_0_12,100,far miss,2,5,False,0,False,1.159
06e54e89,B_0_13,200,far miss,2,3,False,0,False,1.574
06e54e89,B_0_14,100,far in,2,9,True,0,True,0.815
06e54e89,B_0_15,200,far in,2,25,True,0,True,0.44
06e54e89,B_0_2,100,close miss,2,46,False,0,False,1.005
06e54e89,B_0_3,200,close miss,2,11,False,0,False,2.944
06e54e89,B_0_4,100,far miss,2,30,False,0,False,1.204
06e54e89,B_0_5,200,far miss,2,43,False,0,False,0.7020000000000001
06e54e89,B_0_6,100,far in,2,40,True,0,False,0.892
06e54e89,B_0_7,200,far in,2,2,True,0,True,1.409
06e54e89,B_0_8,100,close in,2,27,True,0,True,0.955
06e54e89,B_0_9,200,close in,2,41,True,0,True,1.173
06e54e89,B_1_0,100,close in,2,45,True,1,False,2.1630000000000003
06e54e89,B_1_1,200,close in,2,33,True,1,True,0.5579999999999999
06e54e89,B_1_10,100,close miss,2,17,False,1,False,1.423
06e54e89,B_1_11,200,close miss,2,16,False,1,True,0.431
06e54e89,B_1_12,100,far miss,2,36,False,1,False,1.598
06e54e89,B_1_13,200,far miss,2,54,False,1,True,0.938
06e54e89,B_1_14,100,far in,2,51,True,1,True,1.567
06e54e89,B_1_15,200,far in,2,1,True,1,True,2.436
06e54e89,B_1_2,100,close miss,2,23,False,1,True,1.284
06e54e89,B_1_3,200,close miss,2,31,False,1,True,2.004
06e54e89,B_1_4,100,far miss,2,24,False,1,False,0.596
06e54e89,B_1_5,200,far miss,2,52,False,1,False,1.9480000000000002
06e54e89,B_1_6,100,far in,2,4,True,1,False,3.37
06e54e89,B_1_7,200,far in,2,10,True,1,True,0.748
06e54e89,B_1_8,100,close in,2,15,True,1,False,0.59
06e54e89,B_1_9,200,close in,2,48,True,1,False,1.7930000000000001
06e54e89,B_2_0,100,close in,2,29,True,2,False,1.2919999999999998
06e54e89,B_2_1,200,close in,2,39,True,2,True,1.06
06e54e89,B_2_10,100,close miss,2,32,False,2,False,1.072
06e54e89,B_2_11,200,close miss,2,50,False,2,True,0.7120000000000001
06e54e89,B_2_12,100,far miss,2,18,False,2,True,0.485
06e54e89,B_2_13,200,far miss,2,26,False,2,True,0.655
06e54e89,B_2_14,100,far in,2,37,True,2,True,0.5479999999999999
06e54e89,B_2_15,200,far in,2,55,True,2,False,1.811
06e54e89,B_2_2,100,close miss,2,6,False,2,True,1.082
06e54e89,B_2_3,200,close miss,2,38,False,2,True,1.136
06e54e89,B_2_4,100,far miss,2,44,False,2,False,1.3630000000000002
06e54e89,B_2_5,200,far miss,2,34,False,2,False,1.69
06e54e89,B_2_6,100,far in,2,13,True,2,False,2.0
06e54e89,B_2_7,200,far in,2,8,True,2,True,1.263
06e54e89,B_2_8,100,close in,2,12,True,2,True,1.19
06e54e89,B_2_9,200,close in,2,47,True,2,True,0.52
072539c2,B_0_0,200,close miss,5,4,False,0,False,1.53
072539c2,B_0_1,100,far miss,5,19,False,0,False,0.501
072539c2,B_0_10,200,far miss,5,27,False,0,False,0.802
072539c2,B_0_11,100,far in,5,33,True,0,True,0.8759999999999999
072539c2,B_0_12,200,far in,5,12,True,0,True,0.462
072539c2,B_0_13,100,close in,5,23,True,0,False,0.883
072539c2,B_0_14,200,close in,5,41,True,0,True,2.372
072539c2,B_0_15,100,close miss,5,25,False,0,False,1.831
072539c2,B_0_2,200,far miss,5,38,False,0,False,0.982
072539c2,B_0_3,100,far in,5,6,True,0,True,1.9469999999999998
072539c2,B_0_4,200,far in,5,9,True,0,True,3.1510000000000002
072539c2,B_0_5,100,close in,5,44,True,0,True,1.128
072539c2,B_0_6,200,close in,5,10,True,0,True,0.883
072539c2,B_0_7,100,close miss,5,1,False,0,False,1.8459999999999999
072539c2,B_0_8,200,close miss,5,2,False,0,False,1.345
072539c2,B_0_9,100,far miss,5,8,False,0,False,0.619
072539c2,B_1_0,200,close miss,5,43,False,1,False,1.141
072539c2,B_1_1,100,far miss,5,50,False,1,False,1.278
072539c2,B_1_10,200,far miss,5,20,False,1,False,0.515
072539c2,B_1_11,100,far in,5,13,True,1,True,5.606
072539c2,B_1_12,200,far in,5,24,True,1,True,1.42
072539c2,B_1_13,100,close in,5,48,True,1,False,0.831
072539c2,B_1_14,200,close in,5,34,True,1,True,0.653
072539c2,B_1_15,100,close miss,5,31,False,1,False,3.7430000000000003
072539c2,B_1_2,200,far miss,5,15,False,1,True,0.348
072539c2,B_1_3,100,far in,5,52,True,1,False,1.923
072539c2,B_1_4,200,far in,5,32,True,1,True,0.884
072539c2,B_1_5,100,close in,5,5,True,1,True,1.214
072539c2,B_1_6,200,close in,5,30,True,1,True,3.3080000000000003
072539c2,B_1_7,100,close miss,5,40,False,1,False,1.7519999999999998
072539c2,B_1_8,200,close miss,5,17,False,1,False,2.585
072539c2,B_1_9,100,far miss,5,11,False,1,False,0.755
072539c2,B_2_0,200,close miss,5,37,False,2,False,4.508
072539c2,B_2_1,100,far miss,5,29,False,2,False,3.2
072539c2,B_2_10,200,far miss,5,45,False,2,True,4.811
072539c2,B_2_11,100,far in,5,47,True,2,False,1.196
072539c2,B_2_12,200,far in,5,46,True,2,False,1.206
072539c2,B_2_13,100,close in,5,54,True,2,False,1.294
072539c2,B_2_14,200,close in,5,36,True,2,True,4.456
072539c2,B_2_15,100,close miss,5,55,False,2,True,1.7
072539c2,B_2_2,200,far miss,5,39,False,2,False,1.575
072539c2,B_2_3,100,far in,5,22,True,2,False,0.758
072539c2,B_2_4,200,far in,5,18,True,2,False,0.662
072539c2,B_2_5,100,close in,5,51,True,2,False,1.848
072539c2,B_2_6,200,close in,5,53,True,2,True,1.517
072539c2,B_2_7,100,close miss,5,16,False,2,False,1.6780000000000002
072539c2,B_2_8,200,close miss,5,26,False,2,True,1.8619999999999999
072539c2,B_2_9,100,far miss,5,3,False,2,False,1.072
086338ca,B_0_0,100,close miss,4,29,False,0,False,0.621
086338ca,B_0_1,200,close miss,4,40,False,0,True,1.1179999999999999
086338ca,B_0_10,100,far miss,4,45,False,0,False,0.502
086338ca,B_0_11,200,far miss,4,34,False,0,False,0.8320000000000001
086338ca,B_0_12,100,far in,4,39,True,0,True,0.6809999999999999
086338ca,B_0_13,200,far in,4,27,True,0,True,1.597
086338ca,B_0_14,100,close in,4,3,True,0,True,0.8270000000000001
086338ca,B_0_15,200,close in,4,54,True,0,True,0.6759999999999999
086338ca,B_0_2,100,far miss,4,2,False,0,False,0.927
086338ca,B_0_3,200,far miss,4,48,False,0,False,0.737
086338ca,B_0_4,100,far in,4,5,True,0,False,1.9280000000000002
086338ca,B_0_5,200,far in,4,55,True,0,True,0.263
086338ca,B_0_6,100,close in,4,51,True,0,True,0.795
086338ca,B_0_7,200,close in,4,18,True,0,False,2.403
086338ca,B_0_8,100,close miss,4,37,False,0,False,0.44
086338ca,B_0_9,200,close miss,4,38,False,0,False,1.006
086338ca,B_1_0,100,close miss,4,44,False,1,False,0.971
086338ca,B_1_1,200,close miss,4,10,False,1,True,0.9520000000000001
086338ca,B_1_10,100,far miss,4,26,False,1,False,1.429
086338ca,B_1_11,200,far miss,4,36,False,1,True,1.5190000000000001
086338ca,B_1_12,100,far in,4,20,True,1,True,2.093
086338ca,B_1_13,200,far in,4,12,True,1,True,0.868
086338ca,B_1_14,100,close in,4,8,True,1,True,1.02
086338ca,B_1_15,200,close in,4,16,True,1,True,0.9390000000000001
086338ca,B_1_2,100,far miss,4,23,False,1,False,0.789
086338ca,B_1_3,200,far miss,4,13,False,1,False,1.043
086338ca,B_1_4,100,far in,4,6,True,1,False,0.97
086338ca,B_1_5,200,far in,4,1,True,1,False,1.834
086338ca,B_1_6,100,close in,4,43,True,1,True,0.584
086338ca,B_1_7,200,close in,4,53,True,1,True,0.8220000000000001
086338ca,B_1_8,100,close miss,4,24,False,1,False,1.189
086338ca,B_1_9,200,close miss,4,47,False,1,False,1.537
086338ca,B_2_0,100,close miss,4,33,False,2,False,0.7040000000000001
086338ca,B_2_1,200,close miss,4,25,False,2,True,1.26
086338ca,B_2_10,100,far miss,4,19,False,2,False,1.621
086338ca,B_2_11,200,far miss,4,15,False,2,False,0.977
086338ca,B_2_12,100,far in,4,50,True,2,True,2.092
086338ca,B_2_13,200,far in,4,30,True,2,True,2.595
086338ca,B_2_14,100,close in,4,11,True,2,False,1.5219999999999998
086338ca,B_2_15,200,close in,4,9,True,2,True,1.506
086338ca,B_2_2,100,far miss,4,52,False,2,False,0.731
086338ca,B_2_3,200,far miss,4,46,False,2,False,0.7390000000000001
086338ca,B_2_4,100,far in,4,31,True,2,True,0.97
086338ca,B_2_5,200,far in,4,22,True,2,True,1.495
086338ca,B_2_6,100,close in,4,32,True,2,True,0.84
086338ca,B_2_7,200,close in,4,17,True,2,True,1.12
086338ca,B_2_8,100,close miss,4,4,False,2,False,2.8110000000000004
086338ca,B_2_9,200,close miss,4,41,False,2,False,1.376
08f16ffb,B_0_0,100,close miss,4,34,False,0,False,0.429
08f16ffb,B_0_1,200,close miss,4,1,False,0,True,1.3869999999999998
08f16ffb,B_0_10,100,far miss,4,54,False,0,False,0.282
08f16ffb,B_0_11,200,far miss,4,50,False,0,False,0.121
08f16ffb,B_0_12,100,far in,4,10,True,0,True,0.361
08f16ffb,B_0_13,200,far in,4,15,True,0,True,0.266
08f16ffb,B_0_14,100,close in,4,22,True,0,True,0.294
08f16ffb,B_0_15,200,close in,4,24,True,0,True,0.23
08f16ffb,B_0_2,100,far miss,4,39,False,0,False,0.21600000000000003
08f16ffb,B_0_3,200,far miss,4,23,False,0,False,0.3
08f16ffb,B_0_4,100,far in,4,40,True,0,True,0.212
08f16ffb,B_0_5,200,far in,4,29,True,0,True,0.273
08f16ffb,B_0_6,100,close in,4,32,True,0,True,0.341
08f16ffb,B_0_7,200,close in,4,17,True,0,False,0.299
08f16ffb,B_0_8,100,close miss,4,8,False,0,False,0.35200000000000004
08f16ffb,B_0_9,200,close miss,4,53,False,0,False,0.315
08f16ffb,B_1_0,100,close miss,4,31,False,1,True,0.395
08f16ffb,B_1_1,200,close miss,4,3,False,1,True,1.426
08f16ffb,B_1_10,100,far miss,4,27,False,1,False,0.418
08f16ffb,B_1_11,200,far miss,4,38,False,1,False,0.303
08f16ffb,B_1_12,100,far in,4,47,True,1,True,0.275
08f16ffb,B_1_13,200,far in,4,18,True,1,True,0.433
08f16ffb,B_1_14,100,close in,4,26,True,1,True,0.308
08f16ffb,B_1_15,200,close in,4,55,True,1,True,0.42100000000000004
08f16ffb,B_1_2,100,far miss,4,48,False,1,False,0.262
08f16ffb,B_1_3,200,far miss,4,4,False,1,False,0.746
08f16ffb,B_1_4,100,far in,4,20,True,1,True,1.052
08f16ffb,B_1_5,200,far in,4,16,True,1,True,0.445
08f16ffb,B_1_6,100,close in,4,46,True,1,True,0.39799999999999996
08f16ffb,B_1_7,200,close in,4,5,True,1,True,0.7609999999999999
08f16ffb,B_1_8,100,close miss,4,51,False,1,True,0.257
08f16ffb,B_1_9,200,close miss,4,36,False,1,False,0.537
08f16ffb,B_2_0,100,close miss,4,6,False,2,False,0.905
08f16ffb,B_2_1,200,close miss,4,33,False,2,False,1.103
08f16ffb,B_2_10,100,far miss,4,11,False,2,True,0.945
08f16ffb,B_2_11,200,far miss,4,13,False,2,False,0.42
08f16ffb,B_2_12,100,far in,4,41,True,2,True,1.053
08f16ffb,B_2_13,200,far in,4,37,True,2,True,0.239
08f16ffb,B_2_14,100,close in,4,44,True,2,False,0.31
08f16ffb,B_2_15,200,close in,4,45,True,2,True,0.594
08f16ffb,B_2_2,100,far miss,4,19,False,2,False,0.927
08f16ffb,B_2_3,200,far miss,4,52,False,2,False,0.217
08f16ffb,B_2_4,100,far in,4,12,True,2,False,0.552
08f16ffb,B_2_5,200,far in,4,43,True,2,True,0.565
08f16ffb,B_2_6,100,close in,4,25,True,2,True,0.5710000000000001
08f16ffb,B_2_7,200,close in,4,2,True,2,False,1.4880000000000002
08f16ffb,B_2_8,100,close miss,4,9,False,2,False,0.998
08f16ffb,B_2_9,200,close miss,4,30,False,2,False,1.486
09dc9987,B_0_0,200,far miss,7,45,False,0,False,2.08
09dc9987,B_0_1,100,far in,7,54,True,0,True,0.833
09dc9987,B_0_10,200,far in,7,23,True,0,True,1.8
09dc9987,B_0_11,100,close in,7,44,True,0,True,1.3430000000000002
09dc9987,B_0_12,200,close in,7,51,True,0,True,0.8170000000000001
09dc9987,B_0_13,100,close miss,7,2,False,0,False,2.008
09dc9987,B_0_14,200,close miss,7,53,False,0,False,1.0959999999999999
09dc9987,B_0_15,100,far miss,7,39,False,0,False,1.36
09dc9987,B_0_2,200,far in,7,30,True,0,True,0.705
09dc9987,B_0_3,100,close in,7,3,True,0,True,4.169
09dc9987,B_0_4,200,close in,7,5,True,0,True,1.376
09dc9987,B_0_5,100,close miss,7,40,False,0,True,1.12
09dc9987,B_0_6,200,close miss,7,12,False,0,True,1.665
09dc9987,B_0_7,100,far miss,7,50,False,0,False,1.168
09dc9987,B_0_8,200,far miss,7,8,False,0,False,1.729
09dc9987,B_0_9,100,far in,7,18,True,0,True,1.9280000000000002
09dc9987,B_1_0,200,far miss,7,41,False,1,False,1.7519999999999998
09dc9987,B_1_1,100,far in,7,38,True,1,True,1.511
09dc9987,B_1_10,200,far in,7,11,True,1,True,5.941
09dc9987,B_1_11,100,close in,7,36,True,1,True,2.6
09dc9987,B_1_12,200,close in,7,25,True,1,False,2.418
09dc9987,B_1_13,100,close miss,7,17,False,1,False,2.424
09dc9987,B_1_14,200,close miss,7,19,False,1,True,1.591
09dc9987,B_1_15,100,far miss,7,26,False,1,True,1.632
09dc9987,B_1_2,200,far in,7,33,True,1,True,1.4409999999999998
09dc9987,B_1_3,100,close in,7,4,True,1,False,5.936
09dc9987,B_1_4,200,close in,7,55,True,1,True,0.865
09dc9987,B_1_5,100,close miss,7,27,False,1,True,3.7689999999999997
09dc9987,B_1_6,200,close miss,7,13,False,1,True,1.7209999999999999
09dc9987,B_1_7,100,far miss,7,22,False,1,True,2.417
09dc9987,B_1_8,200,far miss,7,15,False,1,False,1.608
09dc9987,B_1_9,100,far in,7,37,True,1,True,0.96
09dc9987,B_2_0,200,far miss,7,24,False,2,False,3.6239999999999997
09dc9987,B_2_1,100,far in,7,9,True,2,True,3.945
09dc9987,B_2_10,200,far in,7,29,True,2,True,2.201
09dc9987,B_2_11,100,close in,7,43,True,2,True,1.609
09dc9987,B_2_12,200,close in,7,6,True,2,False,3.6660000000000004
09dc9987,B_2_13,100,close miss,7,31,False,2,False,2.8810000000000002
09dc9987,B_2_14,200,close miss,7,1,False,2,True,3.227
09dc9987,B_2_15,100,far miss,7,16,False,2,False,2.7680000000000002
09dc9987,B_2_2,200,far in,7,47,True,2,True,0.888
09dc9987,B_2_3,100,close in,7,52,True,2,True,1.545
09dc9987,B_2_4,200,close in,7,10,True,2,True,2.9760000000000004
09dc9987,B_2_5,100,close miss,7,46,False,2,False,11.065
09dc9987,B_2_6,200,close miss,7,34,False,2,True,4.313
09dc9987,B_2_7,100,far miss,7,48,False,2,False,1.9280000000000002
09dc9987,B_2_8,200,far miss,7,32,False,2,False,4.937
09dc9987,B_2_9,100,far in,7,20,True,2,False,2.56
09f5ded4,B_0_0,100,close in,2,5,True,0,True,0.765
09f5ded4,B_0_1,200,close in,2,17,True,0,True,0.608
09f5ded4,B_0_10,100,close miss,2,16,False,0,True,0.575
09f5ded4,B_0_11,200,close miss,2,25,False,0,True,0.6729999999999999
09f5ded4,B_0_12,100,far miss,2,41,False,0,False,0.748
09f5ded4,B_0_13,200,far miss,2,24,False,0,False,1.341
09f5ded4,B_0_14,100,far in,2,10,True,0,True,0.557
09f5ded4,B_0_15,200,far in,2,22,True,0,True,0.36700000000000005
09f5ded4,B_0_2,100,close miss,2,2,False,0,False,0.9259999999999999
09f5ded4,B_0_3,200,close miss,2,1,False,0,False,1.983
09f5ded4,B_0_4,100,far miss,2,36,False,0,False,0.621
09f5ded4,B_0_5,200,far miss,2,29,False,0,False,0.62
09f5ded4,B_0_6,100,far in,2,12,True,0,True,0.782
09f5ded4,B_0_7,200,far in,2,19,True,0,True,0.43
09f5ded4,B_0_8,100,close in,2,44,True,0,True,0.366
09f5ded4,B_0_9,200,close in,2,38,True,0,True,0.574
09f5ded4,B_1_0,100,close in,2,43,True,1,True,0.575
09f5ded4,B_1_1,200,close in,2,33,True,1,True,0.466
09f5ded4,B_1_10,100,close miss,2,23,False,1,True,0.7809999999999999
09f5ded4,B_1_11,200,close miss,2,3,False,1,False,0.8809999999999999
09f5ded4,B_1_12,100,far miss,2,9,False,1,False,0.8
09f5ded4,B_1_13,200,far miss,2,52,False,1,False,0.49700000000000005
09f5ded4,B_1_14,100,far in,2,13,True,1,True,3.247
09f5ded4,B_1_15,200,far in,2,45,True,1,True,0.496
09f5ded4,B_1_2,100,close miss,2,48,False,1,True,0.6709999999999999
09f5ded4,B_1_3,200,close miss,2,8,False,1,False,1.6640000000000001
09f5ded4,B_1_4,100,far miss,2,27,False,1,False,0.7659999999999999
09f5ded4,B_1_5,200,far miss,2,6,False,1,False,0.858
09f5ded4,B_1_6,100,far in,2,15,True,1,False,0.619
09f5ded4,B_1_7,200,far in,2,37,True,1,True,0.505
09f5ded4,B_1_8,100,close in,2,32,True,1,False,0.912
09f5ded4,B_1_9,200,close in,2,18,True,1,False,0.9059999999999999
09f5ded4,B_2_0,100,close in,2,26,True,2,True,0.715
09f5ded4,B_2_1,200,close in,2,47,True,2,True,0.687
09f5ded4,B_2_10,100,close miss,2,34,False,2,True,0.816
09f5ded4,B_2_11,200,close miss,2,4,False,2,True,1.0190000000000001
09f5ded4,B_2_12,100,far miss,2,31,False,2,False,0.9420000000000001
09f5ded4,B_2_13,200,far miss,2,54,False,2,False,0.415
09f5ded4,B_2_14,100,far in,2,30,True,2,True,0.767
09f5ded4,B_2_15,200,far in,2,11,True,2,True,3.464
09f5ded4,B_2_2,100,close miss,2,46,False,2,False,1.053
09f5ded4,B_2_3,200,close miss,2,51,False,2,True,0.504
09f5ded4,B_2_4,100,far miss,2,53,False,2,False,1.392
09f5ded4,B_2_5,200,far miss,2,50,False,2,False,0.879
09f5ded4,B_2_6,100,far in,2,55,True,2,True,0.47700000000000004
09f5ded4,B_2_7,200,far in,2,39,True,2,True,0.7659999999999999
09f5ded4,B_2_8,100,close in,2,20,True,2,True,1.758
09f5ded4,B_2_9,200,close in,2,40,True,2,True,1.151
0a5cba0c,B_0_0,100,close in,2,25,True,0,True,2.984
0a5cba0c,B_0_1,200,close in,2,19,True,0,True,0.721
0a5cba0c,B_0_10,100,close miss,2,34,False,0,False,2.582
0a5cba0c,B_0_11,200,close miss,2,26,False,0,True,2.319
0a5cba0c,B_0_12,100,far miss,2,12,False,0,False,0.541
0a5cba0c,B_0_13,200,far miss,2,44,False,0,False,0.662
0a5cba0c,B_0_14,100,far in,2,11,True,0,True,2.169
0a5cba0c,B_0_15,200,far in,2,53,True,0,True,0.35200000000000004
0a5cba0c,B_0_2,100,close miss,2,10,False,0,False,0.914
0a5cba0c,B_0_3,200,close miss,2,1,False,0,False,2.053
0a5cba0c,B_0_4,100,far miss,2,20,False,0,False,0.43200000000000005
0a5cba0c,B_0_5,200,far miss,2,41,False,0,False,0.47200000000000003
0a5cba0c,B_0_6,100,far in,2,45,True,0,True,2.505
0a5cba0c,B_0_7,200,far in,2,36,True,0,True,0.523
0a5cba0c,B_0_8,100,close in,2,50,True,0,True,0.599
0a5cba0c,B_0_9,200,close in,2,4,True,0,True,1.6
0a5cba0c,B_1_0,100,close in,2,16,True,1,True,1.785
0a5cba0c,B_1_1,200,close in,2,15,True,1,True,1.501
0a5cba0c,B_1_10,100,close miss,2,18,False,1,True,6.75
0a5cba0c,B_1_11,200,close miss,2,33,False,1,True,4.757
0a5cba0c,B_1_12,100,far miss,2,22,False,1,False,1.2009999999999998
0a5cba0c,B_1_13,200,far miss,2,30,False,1,False,0.529
0a5cba0c,B_1_14,100,far in,2,37,True,1,True,1.985
0a5cba0c,B_1_15,200,far in,2,40,True,1,True,0.508
0a5cba0c,B_1_2,100,close miss,2,43,False,1,True,6.252000000000001
0a5cba0c,B_1_3,200,close miss,2,3,False,1,True,1.229
0a5cba0c,B_1_4,100,far miss,2,8,False,1,False,0.9129999999999999
0a5cba0c,B_1_5,200,far miss,2,29,False,1,False,0.764
0a5cba0c,B_1_6,100,far in,2,55,True,1,False,1.7619999999999998
0a5cba0c,B_1_7,200,far in,2,5,True,1,True,1.514
0a5cba0c,B_1_8,100,close in,2,9,True,1,False,3.705
0a5cba0c,B_1_9,200,close in,2,27,True,1,True,4.82
0a5cba0c,B_2_0,100,close in,2,46,True,2,True,3.35
0a5cba0c,B_2_1,200,close in,2,32,True,2,True,0.557
0a5cba0c,B_2_10,100,close miss,2,52,False,2,True,2.106
0a5cba0c,B_2_11,200,close miss,2,51,False,2,False,1.083
0a5cba0c,B_2_12,100,far miss,2,13,False,2,False,4.1160000000000005
0a5cba0c,B_2_13,200,far miss,2,38,False,2,False,1.541
0a5cba0c,B_2_14,100,far in,2,48,True,2,False,3.4730000000000003
0a5cba0c,B_2_15,200,far in,2,24,True,2,True,2.0909999999999997
0a5cba0c,B_2_2,100,close miss,2,39,False,2,False,0.485
0a5cba0c,B_2_3,200,close miss,2,23,False,2,False,2.7939999999999996
0a5cba0c,B_2_4,100,far miss,2,17,False,2,False,1.945
0a5cba0c,B_2_5,200,far miss,2,31,False,2,False,1.6130000000000002
0a5cba0c,B_2_6,100,far in,2,2,True,2,True,5.45
0a5cba0c,B_2_7,200,far in,2,54,True,2,True,0.473
0a5cba0c,B_2_8,100,close in,2,6,True,2,True,8.687999999999999
0a5cba0c,B_2_9,200,close in,2,47,True,2,True,1.96
0ceea3aa,B_0_0,200,far in,1,23,True,0,True,0.32899999999999996
0ceea3aa,B_0_1,100,close in,1,11,True,0,True,0.43799999999999994
0ceea3aa,B_0_10,200,close in,1,6,True,0,True,0.38299999999999995
0ceea3aa,B_0_11,100,close miss,1,37,False,0,False,0.42
0ceea3aa,B_0_12,200,close miss,1,44,False,0,False,0.325
0ceea3aa,B_0_13,100,far miss,1,20,False,0,False,0.289
0ceea3aa,B_0_14,200,far miss,1,8,False,0,False,0.609
0ceea3aa,B_0_15,100,far in,1,13,True,0,True,0.306
0ceea3aa,B_0_2,200,close in,1,32,True,0,True,0.466
0ceea3aa,B_0_3,100,close miss,1,1,False,0,False,0.848
0ceea3aa,B_0_4,200,close miss,1,30,False,0,False,0.38299999999999995
0ceea3aa,B_0_5,100,far miss,1,52,False,0,False,0.295
0ceea3aa,B_0_6,200,far miss,1,18,False,0,False,0.076
0ceea3aa,B_0_7,100,far in,1,19,True,0,True,0.17300000000000001
0ceea3aa,B_0_8,200,far in,1,47,True,0,True,0.321
0ceea3aa,B_0_9,100,close in,1,22,True,0,True,0.4
0ceea3aa,B_1_0,200,far in,1,36,True,1,True,0.307
0ceea3aa,B_1_1,100,close in,1,26,True,1,False,0.4
0ceea3aa,B_1_10,200,close in,1,55,True,1,True,0.32799999999999996
0ceea3aa,B_1_11,100,close miss,1,5,False,1,True,0.514
0ceea3aa,B_1_12,200,close miss,1,15,False,1,False,0.449
0ceea3aa,B_1_13,100,far miss,1,46,False,1,False,0.322
0ceea3aa,B_1_14,200,far miss,1,54,False,1,False,0.37200000000000005
0ceea3aa,B_1_15,100,far in,1,43,True,1,True,0.315
0ceea3aa,B_1_2,200,close in,1,39,True,1,True,0.172
0ceea3aa,B_1_3,100,close miss,1,9,False,1,True,0.59
0ceea3aa,B_1_4,200,close miss,1,31,False,1,False,0.408
0ceea3aa,B_1_5,100,far miss,1,4,False,1,False,0.451
0ceea3aa,B_1_6,200,far miss,1,45,False,1,False,0.376
0ceea3aa,B_1_7,100,far in,1,2,True,1,True,0.648
0ceea3aa,B_1_8,200,far in,1,27,True,1,False,0.17600000000000002
0ceea3aa,B_1_9,100,close in,1,33,True,1,True,0.618
0ceea3aa,B_2_0,200,far in,1,38,True,2,True,0.33399999999999996
0ceea3aa,B_2_1,100,close in,1,24,True,2,False,0.348
0ceea3aa,B_2_10,200,close in,1,50,True,2,True,0.9640000000000001
0ceea3aa,B_2_11,100,close miss,1,10,False,2,False,0.6890000000000001
0ceea3aa,B_2_12,200,close miss,1,53,False,2,False,0.259
0ceea3aa,B_2_13,100,far miss,1,34,False,2,False,0.355
0ceea3aa,B_2_14,200,far miss,1,16,False,2,False,0.322
0ceea3aa,B_2_15,100,far in,1,3,True,2,False,0.836
0ceea3aa,B_2_2,200,close in,1,29,True,2,False,0.17
0ceea3aa,B_2_3,100,close miss,1,48,False,2,False,0.018000000000000002
0ceea3aa,B_2_4,200,close miss,1,40,False,2,False,0.526
0ceea3aa,B_2_5,100,far miss,1,51,False,2,False,0.381
0ceea3aa,B_2_6,200,far miss,1,25,False,2,False,0.265
0ceea3aa,B_2_7,100,far in,1,17,True,2,True,0.402
0ceea3aa,B_2_8,200,far in,1,41,True,2,True,0.11
0ceea3aa,B_2_9,100,close in,1,12,True,2,False,0.44799999999999995
0f80e626,B_0_0,100,close in,2,19,True,0,True,1.15
0f80e626,B_0_1,200,close in,2,16,True,0,True,0.623
0f80e626,B_0_10,100,close miss,2,12,False,0,True,0.79
0f80e626,B_0_11,200,close miss,2,31,False,0,True,0.79
0f80e626,B_0_12,100,far miss,2,5,False,0,False,1.5759999999999998
0f80e626,B_0_13,200,far miss,2,3,False,0,True,2.0869999999999997
0f80e626,B_0_14,100,far in,2,27,True,0,True,1.04
0f80e626,B_0_15,200,far in,2,47,True,0,True,0.752
0f80e626,B_0_2,100,close miss,2,44,False,0,True,0.537
0f80e626,B_0_3,200,close miss,2,1,False,0,True,1.6769999999999998
0f80e626,B_0_4,100,far miss,2,38,False,0,False,1.4969999999999999
0f80e626,B_0_5,200,far miss,2,6,False,0,False,1.012
0f80e626,B_0_6,100,far in,2,17,True,0,True,1.3090000000000002
0f80e626,B_0_7,200,far in,2,26,True,0,True,0.6459999999999999
0f80e626,B_0_8,100,close in,2,52,True,0,True,2.476
0f80e626,B_0_9,200,close in,2,32,True,0,True,0.8740000000000001
0f80e626,B_1_0,100,close in,2,45,True,1,True,0.601
0f80e626,B_1_1,200,close in,2,4,True,1,True,1.0979999999999999
0f80e626,B_1_10,100,close miss,2,15,False,1,True,0.687
0f80e626,B_1_11,200,close miss,2,20,False,1,False,0.976
0f80e626,B_1_12,100,far miss,2,2,False,1,False,1.5419999999999998
0f80e626,B_1_13,200,far miss,2,46,False,1,False,0.612
0f80e626,B_1_14,100,far in,2,39,True,1,True,0.705
0f80e626,B_1_15,200,far in,2,18,True,1,True,0.76
0f80e626,B_1_2,100,close miss,2,23,False,1,True,1.8780000000000001
0f80e626,B_1_3,200,close miss,2,50,False,1,True,1.254
0f80e626,B_1_4,100,far miss,2,10,False,1,False,0.815
0f80e626,B_1_5,200,far miss,2,9,False,1,False,0.956
0f80e626,B_1_6,100,far in,2,53,True,1,True,1.072
0f80e626,B_1_7,200,far in,2,33,True,1,True,0.7290000000000001
0f80e626,B_1_8,100,close in,2,51,True,1,False,0.335
0f80e626,B_1_9,200,close in,2,25,True,1,False,0.919
0f80e626,B_2_0,100,close in,2,40,True,2,False,1.449
0f80e626,B_2_1,200,close in,2,55,True,2,True,0.41
0f80e626,B_2_10,100,close miss,2,48,False,2,False,0.598
0f80e626,B_2_11,200,close miss,2,8,False,2,False,2.885
0f80e626,B_2_12,100,far miss,2,43,False,2,False,0.779
0f80e626,B_2_13,200,far miss,2,34,False,2,True,1.8840000000000001
0f80e626,B_2_14,100,far in,2,54,True,2,False,0.624
0f80e626,B_2_15,200,far in,2,36,True,2,False,1.311
0f80e626,B_2_2,100,close miss,2,37,False,2,False,0.629
0f80e626,B_2_3,200,close miss,2,11,False,2,False,1.274
0f80e626,B_2_4,100,far miss,2,22,False,2,False,0.601
0f80e626,B_2_5,200,far miss,2,29,False,2,False,0.7340000000000001
0f80e626,B_2_6,100,far in,2,30,True,2,False,0.9520000000000001
0f80e626,B_2_7,200,far in,2,13,True,2,True,2.2230000000000003
0f80e626,B_2_8,100,close in,2,24,True,2,False,0.88
0f80e626,B_2_9,200,close in,2,41,True,2,False,0.9009999999999999
1018343b,B_0_0,200,close in,3,31,True,0,True,1.5530000000000002
1018343b,B_0_1,100,close miss,3,50,False,0,True,0.684
1018343b,B_0_10,200,close miss,3,2,False,0,False,1.92
1018343b,B_0_11,100,far miss,3,40,False,0,False,0.9229999999999999
1018343b,B_0_12,200,far miss,3,8,False,0,False,2.688
1018343b,B_0_13,100,far in,3,15,True,0,True,1.1059999999999999
1018343b,B_0_14,200,far in,3,44,True,0,True,0.16
1018343b,B_0_15,100,close in,3,43,True,0,True,0.561
1018343b,B_0_2,200,close miss,3,6,False,0,True,1.224
1018343b,B_0_3,100,far miss,3,51,False,0,False,1.5730000000000002
1018343b,B_0_4,200,far miss,3,55,False,0,False,0.638
1018343b,B_0_5,100,far in,3,46,True,0,True,0.42200000000000004
1018343b,B_0_6,200,far in,3,54,True,0,True,0.626
1018343b,B_0_7,100,close in,3,18,True,0,True,1.024
1018343b,B_0_8,200,close in,3,22,True,0,True,0.578
1018343b,B_0_9,100,close miss,3,47,False,0,False,0.787
1018343b,B_1_0,200,close in,3,10,True,1,True,0.892
1018343b,B_1_1,100,close miss,3,29,False,1,True,0.737
1018343b,B_1_10,200,close miss,3,24,False,1,True,1.083
1018343b,B_1_11,100,far miss,3,34,False,1,True,0.753
1018343b,B_1_12,200,far miss,3,13,False,1,True,2.327
1018343b,B_1_13,100,far in,3,39,True,1,True,0.65
1018343b,B_1_14,200,far in,3,26,True,1,True,0.489
1018343b,B_1_15,100,close in,3,4,True,1,False,2.215
1018343b,B_1_2,200,close miss,3,41,False,1,False,1.2229999999999999
1018343b,B_1_3,100,far miss,3,12,False,1,False,1.636
1018343b,B_1_4,200,far miss,3,19,False,1,False,1.54
1018343b,B_1_5,100,far in,3,37,True,1,True,1.014
1018343b,B_1_6,200,far in,3,20,True,1,True,1.147
1018343b,B_1_7,100,close in,3,27,True,1,True,0.847
1018343b,B_1_8,200,close in,3,48,True,1,True,1.14
1018343b,B_1_9,100,close miss,3,1,False,1,False,1.625
1018343b,B_2_0,200,close in,3,25,True,2,False,1.055
1018343b,B_2_1,100,close miss,3,11,False,2,True,1.6540000000000001
1018343b,B_2_10,200,close miss,3,32,False,2,True,1.7169999999999999
1018343b,B_2_11,100,far miss,3,45,False,2,False,2.254
1018343b,B_2_12,200,far miss,3,52,False,2,True,0.7859999999999999
1018343b,B_2_13,100,far in,3,9,True,2,True,1.7930000000000001
1018343b,B_2_14,200,far in,3,16,True,2,True,0.914
1018343b,B_2_15,100,close in,3,33,True,2,True,0.907
1018343b,B_2_2,200,close miss,3,3,False,2,True,2.781
1018343b,B_2_3,100,far miss,3,17,False,2,True,3.9389999999999996
1018343b,B_2_4,200,far miss,3,36,False,2,True,0.591
1018343b,B_2_5,100,far in,3,53,True,2,True,0.828
1018343b,B_2_6,200,far in,3,38,True,2,True,1.2209999999999999
1018343b,B_2_7,100,close in,3,5,True,2,False,2.468
1018343b,B_2_8,200,close in,3,30,True,2,False,3.265
1018343b,B_2_9,100,close miss,3,23,False,2,True,1.16
102ae339,B_0_0,200,far miss,7,54,False,0,False,0.588
102ae339,B_0_1,100,far in,7,22,True,0,True,0.389
102ae339,B_0_10,200,far in,7,52,True,0,True,0.42
102ae339,B_0_11,100,close in,7,55,True,0,True,1.298
102ae339,B_0_12,200,close in,7,16,True,0,True,0.5670000000000001
102ae339,B_0_13,100,close miss,7,25,False,0,False,2.6439999999999997
102ae339,B_0_14,200,close miss,7,32,False,0,False,1.5819999999999999
102ae339,B_0_15,100,far miss,7,17,False,0,False,0.885
102ae339,B_0_2,200,far in,7,34,True,0,True,0.78
102ae339,B_0_3,100,close in,7,9,True,0,True,1.175
102ae339,B_0_4,200,close in,7,39,True,0,True,0.895
102ae339,B_0_5,100,close miss,7,11,False,0,False,2.188
102ae339,B_0_6,200,close miss,7,19,False,0,True,0.9790000000000001
102ae339,B_0_7,100,far miss,7,4,False,0,False,2.793
102ae339,B_0_8,200,far miss,7,48,False,0,False,0.652
102ae339,B_0_9,100,far in,7,2,True,0,True,0.89
102ae339,B_1_0,200,far miss,7,20,False,1,True,2.645
102ae339,B_1_1,100,far in,7,31,True,1,True,0.508
102ae339,B_1_10,200,far in,7,5,True,1,True,0.7020000000000001
102ae339,B_1_11,100,close in,7,6,True,1,True,1.868
102ae339,B_1_12,200,close in,7,51,True,1,True,1.226
102ae339,B_1_13,100,close miss,7,13,False,1,True,1.095
102ae339,B_1_14,200,close miss,7,33,False,1,True,2.126
102ae339,B_1_15,100,far miss,7,47,False,1,False,1.876
102ae339,B_1_2,200,far in,7,36,True,1,True,0.575
102ae339,B_1_3,100,close in,7,30,True,1,True,2.048
102ae339,B_1_4,200,close in,7,38,True,1,True,2.298
102ae339,B_1_5,100,close miss,7,44,False,1,False,1.435
102ae339,B_1_6,200,close miss,7,37,False,1,False,0.778
102ae339,B_1_7,100,far miss,7,41,False,1,False,1.147
102ae339,B_1_8,200,far miss,7,1,False,1,True,3.2560000000000002
102ae339,B_1_9,100,far in,7,53,True,1,True,0.608
102ae339,B_2_0,200,far miss,7,46,False,2,False,2.452
102ae339,B_2_1,100,far in,7,23,True,2,True,1.051
102ae339,B_2_10,200,far in,7,15,True,2,True,2.798
102ae339,B_2_11,100,close in,7,50,True,2,False,1.848
102ae339,B_2_12,200,close in,7,29,True,2,True,5.6370000000000005
102ae339,B_2_13,100,close miss,7,12,False,2,False,2.318
102ae339,B_2_14,200,close miss,7,24,False,2,True,1.785
102ae339,B_2_15,100,far miss,7,8,False,2,False,2.015
102ae339,B_2_2,200,far in,7,10,True,2,True,1.449
102ae339,B_2_3,100,close in,7,43,True,2,True,2.28
102ae339,B_2_4,200,close in,7,18,True,2,True,0.64
102ae339,B_2_5,100,close miss,7,3,False,2,False,5.185
102ae339,B_2_6,200,close miss,7,26,False,2,True,1.2990000000000002
102ae339,B_2_7,100,far miss,7,27,False,2,False,2.248
102ae339,B_2_8,200,far miss,7,40,False,2,False,1.615
102ae339,B_2_9,100,far in,7,45,True,2,False,1.062
11372d8f,B_0_0,200,close in,3,11,True,0,True,3.9960000000000004
11372d8f,B_0_1,100,close miss,3,52,False,0,False,0.6459999999999999
11372d8f,B_0_10,200,close miss,3,46,False,0,False,1.208
11372d8f,B_0_11,100,far miss,3,44,False,0,False,1.036
11372d8f,B_0_12,200,far miss,3,19,False,0,False,0.982
11372d8f,B_0_13,100,far in,3,18,True,0,True,1.062
11372d8f,B_0_14,200,far in,3,22,True,0,True,0.574
11372d8f,B_0_15,100,close in,3,10,True,0,True,3.4619999999999997
11372d8f,B_0_2,200,close miss,3,13,False,0,True,1.88
11372d8f,B_0_3,100,far miss,3,2,False,0,False,4.294
11372d8f,B_0_4,200,far miss,3,8,False,0,False,2.34
11372d8f,B_0_5,100,far in,3,41,True,0,True,0.662
11372d8f,B_0_6,200,far in,3,53,True,0,True,0.41200000000000003
11372d8f,B_0_7,100,close in,3,16,True,0,True,3.89
11372d8f,B_0_8,200,close in,3,45,True,0,True,1.584
11372d8f,B_0_9,100,close miss,3,33,False,0,False,1.3730000000000002
11372d8f,B_1_0,200,close in,3,27,True,1,True,1.2830000000000001
11372d8f,B_1_1,100,close miss,3,36,False,1,True,0.847
11372d8f,B_1_10,200,close miss,3,47,False,1,True,0.8290000000000001
11372d8f,B_1_11,100,far miss,3,23,False,1,False,2.205
11372d8f,B_1_12,200,far miss,3,32,False,1,False,2.439
11372d8f,B_1_13,100,far in,3,54,True,1,True,0.629
11372d8f,B_1_14,200,far in,3,40,True,1,True,0.539
11372d8f,B_1_15,100,close in,3,25,True,1,False,1.308
11372d8f,B_1_2,200,close miss,3,55,False,1,False,0.68
11372d8f,B_1_3,100,far miss,3,1,False,1,False,6.231
11372d8f,B_1_4,200,far miss,3,38,False,1,False,0.841
11372d8f,B_1_5,100,far in,3,50,True,1,True,1.93
11372d8f,B_1_6,200,far in,3,3,True,1,True,3.1210000000000004
11372d8f,B_1_7,100,close in,3,5,True,1,True,4.381
11372d8f,B_1_8,200,close in,3,6,True,1,True,5.1739999999999995
11372d8f,B_1_9,100,close miss,3,39,False,1,False,1.219
11372d8f,B_2_0,200,close in,3,20,True,2,True,2.634
11372d8f,B_2_1,100,close miss,3,24,False,2,False,1.639
11372d8f,B_2_10,200,close miss,3,30,False,2,False,0.866
11372d8f,B_2_11,100,far miss,3,26,False,2,False,1.761
11372d8f,B_2_12,200,far miss,3,51,False,2,True,0.777
11372d8f,B_2_13,100,far in,3,12,True,2,False,5.126
11372d8f,B_2_14,200,far in,3,34,True,2,True,0.8270000000000001
11372d8f,B_2_15,100,close in,3,48,True,2,False,0.909
11372d8f,B_2_2,200,close miss,3,29,False,2,True,1.26
11372d8f,B_2_3,100,far miss,3,4,False,2,True,3.429
11372d8f,B_2_4,200,far miss,3,9,False,2,True,4.494
11372d8f,B_2_5,100,far in,3,31,True,2,False,1.969
11372d8f,B_2_6,200,far in,3,17,True,2,True,1.6769999999999998
11372d8f,B_2_7,100,close in,3,15,True,2,True,1.3319999999999999
11372d8f,B_2_8,200,close in,3,43,True,2,False,1.841
11372d8f,B_2_9,100,close miss,3,37,False,2,True,0.63
114edef6,B_0_0,200,far in,1,32,True,0,True,0.615
114edef6,B_0_1,100,close in,1,37,True,0,True,0.539
114edef6,B_0_10,200,close in,1,26,True,0,True,0.465
114edef6,B_0_11,100,close miss,1,53,False,0,True,0.518
114edef6,B_0_12,200,close miss,1,36,False,0,False,0.43200000000000005
114edef6,B_0_13,100,far miss,1,1,False,0,False,1.008
114edef6,B_0_14,200,far miss,1,41,False,0,False,0.53
114edef6,B_0_15,100,far in,1,51,True,0,True,0.5
114edef6,B_0_2,200,close in,1,30,True,0,True,0.542
114edef6,B_0_3,100,close miss,1,10,False,0,False,1.71
114edef6,B_0_4,200,close miss,1,13,False,0,True,0.584
114edef6,B_0_5,100,far miss,1,4,False,0,False,0.815
114edef6,B_0_6,200,far miss,1,23,False,0,False,0.96
114edef6,B_0_7,100,far in,1,39,True,0,True,0.59
114edef6,B_0_8,200,far in,1,43,True,0,True,0.47700000000000004
114edef6,B_0_9,100,close in,1,33,True,0,True,0.53
114edef6,B_1_0,200,far in,1,52,True,1,True,0.544
114edef6,B_1_1,100,close in,1,40,True,1,False,1.078
114edef6,B_1_10,200,close in,1,25,True,1,True,0.446
114edef6,B_1_11,100,close miss,1,18,False,1,True,0.499
114edef6,B_1_12,200,close miss,1,27,False,1,True,0.852
114edef6,B_1_13,100,far miss,1,31,False,1,False,2.293
114edef6,B_1_14,200,far miss,1,11,False,1,True,0.5760000000000001
114edef6,B_1_15,100,far in,1,2,True,1,False,1.7209999999999999
114edef6,B_1_2,200,close in,1,16,True,1,True,0.628
114edef6,B_1_3,100,close miss,1,12,False,1,True,0.836
114edef6,B_1_4,200,close miss,1,17,False,1,False,1.058
114edef6,B_1_5,100,far miss,1,8,False,1,False,1.05
114edef6,B_1_6,200,far miss,1,19,False,1,False,0.6970000000000001
114edef6,B_1_7,100,far in,1,9,True,1,True,1.3
114edef6,B_1_8,200,far in,1,48,True,1,True,0.774
114edef6,B_1_9,100,close in,1,3,True,1,False,1.0
114edef6,B_2_0,200,far in,1,6,True,2,True,0.853
114edef6,B_2_1,100,close in,1,34,True,2,False,0.7090000000000001
114edef6,B_2_10,200,close in,1,38,True,2,False,0.799
114edef6,B_2_11,100,close miss,1,50,False,2,False,0.762
114edef6,B_2_12,200,close miss,1,44,False,2,False,1.187
114edef6,B_2_13,100,far miss,1,47,False,2,False,0.624
114edef6,B_2_14,200,far miss,1,20,False,2,True,0.6679999999999999
114edef6,B_2_15,100,far in,1,54,True,2,False,1.518
114edef6,B_2_2,200,close in,1,22,True,2,False,1.7209999999999999
114edef6,B_2_3,100,close miss,1,55,False,2,False,1.197
114edef6,B_2_4,200,close miss,1,29,False,2,False,1.088
114edef6,B_2_5,100,far miss,1,15,False,2,False,0.725
114edef6,B_2_6,200,far miss,1,24,False,2,True,0.475
114edef6,B_2_7,100,far in,1,5,True,2,False,1.672
114edef6,B_2_8,200,far in,1,45,True,2,True,1.499
114edef6,B_2_9,100,close in,1,46,True,2,True,0.435
14208d48,B_0_0,200,far in,1,54,True,0,True,0.62
14208d48,B_0_1,100,close in,1,20,True,0,True,0.982
14208d48,B_0_10,200,close in,1,39,True,0,True,0.387
14208d48,B_0_11,100,close miss,1,11,False,0,True,3.515
14208d48,B_0_12,200,close miss,1,23,False,0,False,1.426
14208d48,B_0_13,100,far miss,1,43,False,0,False,0.607
14208d48,B_0_14,200,far miss,1,37,False,0,False,1.256
14208d48,B_0_15,100,far in,1,48,True,0,True,1.015
14208d48,B_0_2,200,close in,1,55,True,0,True,1.127
14208d48,B_0_3,100,close miss,1,26,False,0,False,0.782
14208d48,B_0_4,200,close miss,1,46,False,0,False,2.877
14208d48,B_0_5,100,far miss,1,53,False,0,False,0.907
14208d48,B_0_6,200,far miss,1,32,False,0,False,2.4619999999999997
14208d48,B_0_7,100,far in,1,34,True,0,True,1.1320000000000001
14208d48,B_0_8,200,far in,1,50,True,0,True,0.857
14208d48,B_0_9,100,close in,1,3,True,0,True,2.569
14208d48,B_1_0,200,far in,1,29,True,1,True,0.948
14208d48,B_1_1,100,close in,1,51,True,1,True,2.17
14208d48,B_1_10,200,close in,1,17,True,1,True,0.698
14208d48,B_1_11,100,close miss,1,19,False,1,False,6.354
14208d48,B_1_12,200,close miss,1,38,False,1,False,1.445
14208d48,B_1_13,100,far miss,1,5,False,1,True,4.372
14208d48,B_1_14,200,far miss,1,30,False,1,False,1.4
14208d48,B_1_15,100,far in,1,1,True,1,True,4.78
14208d48,B_1_2,200,close in,1,33,True,1,True,3.6319999999999997
14208d48,B_1_3,100,close miss,1,52,False,1,False,1.057
14208d48,B_1_4,200,close miss,1,22,False,1,False,0.769
14208d48,B_1_5,100,far miss,1,12,False,1,False,1.514
14208d48,B_1_6,200,far miss,1,10,False,1,True,3.947
14208d48,B_1_7,100,far in,1,24,True,1,True,0.831
14208d48,B_1_8,200,far in,1,45,True,1,False,2.612
14208d48,B_1_9,100,close in,1,6,True,1,False,2.654
14208d48,B_2_0,200,far in,1,4,True,2,False,2.577
14208d48,B_2_1,100,close in,1,27,True,2,True,2.25
14208d48,B_2_10,200,close in,1,15,True,2,True,1.883
14208d48,B_2_11,100,close miss,1,18,False,2,False,2.66
14208d48,B_2_12,200,close miss,1,47,False,2,True,2.6010000000000004
14208d48,B_2_13,100,far miss,1,13,False,2,False,2.164
14208d48,B_2_14,200,far miss,1,36,False,2,False,2.147
14208d48,B_2_15,100,far in,1,31,True,2,True,3.0589999999999997
14208d48,B_2_2,200,close in,1,41,True,2,True,6.566
14208d48,B_2_3,100,close miss,1,2,False,2,True,3.489
14208d48,B_2_4,200,close miss,1,40,False,2,False,2.22
14208d48,B_2_5,100,far miss,1,9,False,2,False,1.052
14208d48,B_2_6,200,far miss,1,8,False,2,False,3.542
14208d48,B_2_7,100,far in,1,25,True,2,True,1.568
14208d48,B_2_8,200,far in,1,44,True,2,True,1.43
14208d48,B_2_9,100,close in,1,16,True,2,False,3.841
15de2483,B_0_0,100,far in,0,8,True,0,True,1.4809999999999999
15de2483,B_0_1,200,far in,0,47,True,0,True,0.504
15de2483,B_0_10,100,close in,0,36,True,0,True,1.92
15de2483,B_0_11,200,close in,0,23,True,0,True,2.272
15de2483,B_0_12,100,close miss,0,18,False,0,True,0.647
15de2483,B_0_13,200,close miss,0,45,False,0,True,0.6970000000000001
15de2483,B_0_14,100,far miss,0,30,False,0,False,1.8090000000000002
15de2483,B_0_15,200,far miss,0,46,False,0,False,1.5490000000000002
15de2483,B_0_2,100,close in,0,39,True,0,True,2.28
15de2483,B_0_3,200,close in,0,16,True,0,True,1.135
15de2483,B_0_4,100,close miss,0,26,False,0,True,1.7630000000000001
15de2483,B_0_5,200,close miss,0,1,False,0,True,1.926
15de2483,B_0_6,100,far miss,0,3,False,0,False,0.9590000000000001
15de2483,B_0_7,200,far miss,0,10,False,0,False,2.7880000000000003
15de2483,B_0_8,100,far in,0,51,True,0,True,0.32
15de2483,B_0_9,200,far in,0,38,True,0,True,4.301
15de2483,B_1_0,100,far in,0,33,True,1,False,3.3510000000000004
15de2483,B_1_1,200,far in,0,17,True,1,True,1.534
15de2483,B_1_10,100,close in,0,24,True,1,False,1.8319999999999999
15de2483,B_1_11,200,close in,0,19,True,1,True,1.9040000000000001
15de2483,B_1_12,100,close miss,0,25,False,1,False,1.949
15de2483,B_1_13,200,close miss,0,37,False,1,True,2.24
15de2483,B_1_14,100,far miss,0,9,False,1,False,0.7440000000000001
15de2483,B_1_15,200,far miss,0,27,False,1,False,0.7090000000000001
15de2483,B_1_2,100,close in,0,12,True,1,True,1.415
15de2483,B_1_3,200,close in,0,29,True,1,True,1.8559999999999999
15de2483,B_1_4,100,close miss,0,11,False,1,False,1.338
15de2483,B_1_5,200,close miss,0,20,False,1,False,0.8190000000000001
15de2483,B_1_6,100,far miss,0,32,False,1,False,2.5789999999999997
15de2483,B_1_7,200,far miss,0,6,False,1,True,1.189
15de2483,B_1_8,100,far in,0,48,True,1,False,0.496
15de2483,B_1_9,200,far in,0,2,True,1,True,2.188
15de2483,B_2_0,100,far in,0,4,True,2,False,1.101
15de2483,B_2_1,200,far in,0,34,True,2,True,1.29
15de2483,B_2_10,100,close in,0,44,True,2,False,1.19
15de2483,B_2_11,200,close in,0,22,True,2,False,1.985
15de2483,B_2_12,100,close miss,0,50,False,2,False,1.9380000000000002
15de2483,B_2_13,200,close miss,0,5,False,2,False,1.906
15de2483,B_2_14,100,far miss,0,54,False,2,True,2.638
15de2483,B_2_15,200,far miss,0,15,False,2,True,2.522
15de2483,B_2_2,100,close in,0,31,True,2,True,1.025
15de2483,B_2_3,200,close in,0,55,True,2,True,1.443
15de2483,B_2_4,100,close miss,0,53,False,2,True,1.6440000000000001
15de2483,B_2_5,200,close miss,0,52,False,2,False,0.94
15de2483,B_2_6,100,far miss,0,43,False,2,True,7.672000000000001
15de2483,B_2_7,200,far miss,0,40,False,2,False,0.36
15de2483,B_2_8,100,far in,0,13,True,2,False,0.354
15de2483,B_2_9,200,far in,0,41,True,2,True,0.7490000000000001
16afc554,B_0_0,200,close in,3,29,True,0,True,0.281
16afc554,B_0_1,100,close miss,3,20,False,0,False,0.579
16afc554,B_0_10,200,close miss,3,38,False,0,True,1.5659999999999998
16afc554,B_0_11,100,far miss,3,17,False,0,False,0.256
16afc554,B_0_12,200,far miss,3,46,False,0,False,0.256
16afc554,B_0_13,100,far in,3,8,True,0,True,0.377
16afc554,B_0_14,200,far in,3,41,True,0,True,0.295
16afc554,B_0_15,100,close in,3,27,True,0,True,1.569
16afc554,B_0_2,200,close miss,3,26,False,0,True,2.164
16afc554,B_0_3,100,far miss,3,4,False,0,False,1.5319999999999998
16afc554,B_0_4,200,far miss,3,45,False,0,False,0.29600000000000004
16afc554,B_0_5,100,far in,3,5,True,0,True,0.584
16afc554,B_0_6,200,far in,3,43,True,0,True,0.46
16afc554,B_0_7,100,close in,3,22,True,0,False,0.708
16afc554,B_0_8,200,close in,3,25,True,0,True,0.385
16afc554,B_0_9,100,close miss,3,34,False,0,False,0.23600000000000002
16afc554,B_1_0,200,close in,3,10,True,1,True,1.93
16afc554,B_1_1,100,close miss,3,19,False,1,True,4.382
16afc554,B_1_10,200,close miss,3,24,False,1,False,1.758
16afc554,B_1_11,100,far miss,3,18,False,1,False,0.55
16afc554,B_1_12,200,far miss,3,44,False,1,False,0.46299999999999997
16afc554,B_1_13,100,far in,3,47,True,1,True,1.6380000000000001
16afc554,B_1_14,200,far in,3,40,True,1,True,1.218
16afc554,B_1_15,100,close in,3,52,True,1,True,0.371
16afc554,B_1_2,200,close miss,3,39,False,1,True,1.091
16afc554,B_1_3,100,far miss,3,51,False,1,False,0.654
16afc554,B_1_4,200,far miss,3,13,False,1,True,0.384
16afc554,B_1_5,100,far in,3,54,True,1,True,0.55
16afc554,B_1_6,200,far in,3,31,True,1,True,0.465
16afc554,B_1_7,100,close in,3,48,True,1,True,0.912
16afc554,B_1_8,200,close in,3,33,True,1,True,0.414
16afc554,B_1_9,100,close miss,3,53,False,1,False,0.6990000000000001
16afc554,B_2_0,200,close in,3,3,True,2,False,1.375
16afc554,B_2_1,100,close miss,3,16,False,2,False,0.563
16afc554,B_2_10,200,close miss,3,12,False,2,False,1.6740000000000002
16afc554,B_2_11,100,far miss,3,55,False,2,False,0.528
16afc554,B_2_12,200,far miss,3,6,False,2,False,2.897
16afc554,B_2_13,100,far in,3,50,True,2,False,0.358
16afc554,B_2_14,200,far in,3,2,True,2,True,1.505
16afc554,B_2_15,100,close in,3,11,True,2,False,0.519
16afc554,B_2_2,200,close miss,3,36,False,2,True,0.7120000000000001
16afc554,B_2_3,100,far miss,3,30,False,2,False,1.551
16afc554,B_2_4,200,far miss,3,37,False,2,False,0.894
16afc554,B_2_5,100,far in,3,32,True,2,True,1.433
16afc554,B_2_6,200,far in,3,9,True,2,True,1.21
16afc554,B_2_7,100,close in,3,15,True,2,True,1.475
16afc554,B_2_8,200,close in,3,23,True,2,True,0.662
16afc554,B_2_9,100,close miss,3,1,False,2,True,1.8159999999999998
16d3ce58,B_0_0,200,close miss,5,8,False,0,False,4.422
16d3ce58,B_0_1,100,far miss,5,39,False,0,False,3.7030000000000003
16d3ce58,B_0_10,200,far miss,5,51,False,0,False,3.3819999999999997
16d3ce58,B_0_11,100,far in,5,29,True,0,True,2.9939999999999998
16d3ce58,B_0_12,200,far in,5,5,True,0,True,1.466
16d3ce58,B_0_13,100,close in,5,32,True,0,True,3.1010000000000004
16d3ce58,B_0_14,200,close in,5,25,True,0,False,4.013999999999999
16d3ce58,B_0_15,100,close miss,5,22,False,0,False,10.22
16d3ce58,B_0_2,200,far miss,5,1,False,0,False,2.909
16d3ce58,B_0_3,100,far in,5,18,True,0,True,3.861
16d3ce58,B_0_4,200,far in,5,23,True,0,True,1.4980000000000002
16d3ce58,B_0_5,100,close in,5,11,True,0,True,1.8869999999999998
16d3ce58,B_0_6,200,close in,5,45,True,0,True,1.2
16d3ce58,B_0_7,100,close miss,5,31,False,0,True,2.855
16d3ce58,B_0_8,200,close miss,5,6,False,0,False,2.384
16d3ce58,B_0_9,100,far miss,5,3,False,0,False,2.44
16d3ce58,B_1_0,200,close miss,5,30,False,1,False,4.81
16d3ce58,B_1_1,100,far miss,5,16,False,1,False,6.35
16d3ce58,B_1_10,200,far miss,5,41,False,1,False,5.065
16d3ce58,B_1_11,100,far in,5,19,True,1,True,5.361000000000001
16d3ce58,B_1_12,200,far in,5,40,True,1,True,3.845
16d3ce58,B_1_13,100,close in,5,27,True,1,True,7.77
16d3ce58,B_1_14,200,close in,5,48,True,1,False,4.021
16d3ce58,B_1_15,100,close miss,5,13,False,1,True,2.4730000000000003
16d3ce58,B_1_2,200,far miss,5,43,False,1,False,2.745
16d3ce58,B_1_3,100,far in,5,37,True,1,True,3.8739999999999997
16d3ce58,B_1_4,200,far in,5,34,True,1,True,2.886
16d3ce58,B_1_5,100,close in,5,2,True,1,False,3.2460000000000004
16d3ce58,B_1_6,200,close in,5,12,True,1,True,8.587
16d3ce58,B_1_7,100,close miss,5,50,False,1,True,1.557
16d3ce58,B_1_8,200,close miss,5,55,False,1,True,4.2860000000000005
16d3ce58,B_1_9,100,far miss,5,52,False,1,False,5.553
16d3ce58,B_2_0,200,close miss,5,17,False,2,False,6.446000000000001
16d3ce58,B_2_1,100,far miss,5,20,False,2,False,3.865
16d3ce58,B_2_10,200,far miss,5,54,False,2,False,8.747
16d3ce58,B_2_11,100,far in,5,4,True,2,True,5.165
16d3ce58,B_2_12,200,far in,5,26,True,2,True,2.17
16d3ce58,B_2_13,100,close in,5,44,True,2,True,3.9730000000000003
16d3ce58,B_2_14,200,close in,5,10,True,2,True,3.18
16d3ce58,B_2_15,100,close miss,5,36,False,2,True,5.0680000000000005
16d3ce58,B_2_2,200,far miss,5,9,False,2,False,7.499
16d3ce58,B_2_3,100,far in,5,47,True,2,True,8.627
16d3ce58,B_2_4,200,far in,5,24,True,2,True,2.762
16d3ce58,B_2_5,100,close in,5,46,True,2,True,2.112
16d3ce58,B_2_6,200,close in,5,33,True,2,True,5.519
16d3ce58,B_2_7,100,close miss,5,53,False,2,False,6.49
16d3ce58,B_2_8,200,close miss,5,38,False,2,False,2.492
16d3ce58,B_2_9,100,far miss,5,15,False,2,False,6.257000000000001
17682e7a,B_0_0,200,far in,1,29,True,0,True,1.82
17682e7a,B_0_1,100,close in,1,51,True,0,True,2.136
17682e7a,B_0_10,200,close in,1,32,True,0,False,0.201
17682e7a,B_0_11,100,close miss,1,37,False,0,True,0.20600000000000002
17682e7a,B_0_12,200,close miss,1,44,False,0,False,2.428
17682e7a,B_0_13,100,far miss,1,6,False,0,True,7.082000000000001
17682e7a,B_0_14,200,far miss,1,52,False,0,False,0.9540000000000001
17682e7a,B_0_15,100,far in,1,53,True,0,True,1.6119999999999999
17682e7a,B_0_2,200,close in,1,25,True,0,True,2.233
17682e7a,B_0_3,100,close miss,1,24,False,0,False,3.487
17682e7a,B_0_4,200,close miss,1,1,False,0,True,2.431
17682e7a,B_0_5,100,far miss,1,8,False,0,False,2.719
17682e7a,B_0_6,200,far miss,1,16,False,0,False,1.268
17682e7a,B_0_7,100,far in,1,18,True,0,True,2.0469999999999997
17682e7a,B_0_8,200,far in,1,23,True,0,True,0.7979999999999999
17682e7a,B_0_9,100,close in,1,19,True,0,True,1.953
17682e7a,B_1_0,200,far in,1,2,True,1,True,3.847
17682e7a,B_1_1,100,close in,1,50,True,1,True,1.742
17682e7a,B_1_10,200,close in,1,33,True,1,True,2.0869999999999997
17682e7a,B_1_11,100,close miss,1,3,False,1,False,4.404
17682e7a,B_1_12,200,close miss,1,4,False,1,True,2.648
17682e7a,B_1_13,100,far miss,1,17,False,1,False,4.2589999999999995
17682e7a,B_1_14,200,far miss,1,34,False,1,False,2.459
17682e7a,B_1_15,100,far in,1,47,True,1,False,1.415
17682e7a,B_1_2,200,close in,1,5,True,1,True,2.293
17682e7a,B_1_3,100,close miss,1,55,False,1,True,1.704
17682e7a,B_1_4,200,close miss,1,54,False,1,False,2.2880000000000003
17682e7a,B_1_5,100,far miss,1,10,False,1,False,2.98
17682e7a,B_1_6,200,far miss,1,41,False,1,False,5.372000000000001
17682e7a,B_1_7,100,far in,1,27,True,1,True,2.497
17682e7a,B_1_8,200,far in,1,20,True,1,True,1.65
17682e7a,B_1_9,100,close in,1,9,True,1,False,1.761
17682e7a,B_2_0,200,far in,1,22,True,2,True,4.913
17682e7a,B_2_1,100,close in,1,13,True,2,True,1.899
17682e7a,B_2_10,200,close in,1,12,True,2,True,2.022
17682e7a,B_2_11,100,close miss,1,46,False,2,True,4.692
17682e7a,B_2_12,200,close miss,1,45,False,2,True,3.301
17682e7a,B_2_13,100,far miss,1,40,False,2,False,4.1930000000000005
17682e7a,B_2_14,200,far miss,1,11,False,2,True,2.22
17682e7a,B_2_15,100,far in,1,43,True,2,True,2.7939999999999996
17682e7a,B_2_2,200,close in,1,36,True,2,True,1.52
17682e7a,B_2_3,100,close miss,1,31,False,2,True,3.0869999999999997
17682e7a,B_2_4,200,close miss,1,26,False,2,True,3.753
17682e7a,B_2_5,100,far miss,1,15,False,2,False,3.127
17682e7a,B_2_6,200,far miss,1,30,False,2,False,5.985
17682e7a,B_2_7,100,far in,1,39,True,2,True,1.8780000000000001
17682e7a,B_2_8,200,far in,1,48,True,2,True,0.451
17682e7a,B_2_9,100,close in,1,38,True,2,True,6.172999999999999
1798edcc,B_0_0,200,far miss,7,22,False,0,False,0.455
1798edcc,B_0_1,100,far in,7,25,True,0,True,0.759
1798edcc,B_0_10,200,far in,7,52,True,0,True,0.401
1798edcc,B_0_11,100,close in,7,18,True,0,True,1.777
1798edcc,B_0_12,200,close in,7,3,True,0,False,1.8
1798edcc,B_0_13,100,close miss,7,5,False,0,False,1.088
1798edcc,B_0_14,200,close miss,7,37,False,0,False,0.7120000000000001
1798edcc,B_0_15,100,far miss,7,43,False,0,False,1.199
1798edcc,B_0_2,200,far in,7,39,True,0,True,0.488
1798edcc,B_0_3,100,close in,7,13,True,0,True,0.871
1798edcc,B_0_4,200,close in,7,44,True,0,True,0.319
1798edcc,B_0_5,100,close miss,7,17,False,0,True,0.8809999999999999
1798edcc,B_0_6,200,close miss,7,19,False,0,False,0.9359999999999999
1798edcc,B_0_7,100,far miss,7,40,False,0,False,0.46399999999999997
1798edcc,B_0_8,200,far miss,7,38,False,0,False,0.5770000000000001
1798edcc,B_0_9,100,far in,7,11,True,0,True,0.41600000000000004
1798edcc,B_1_0,200,far miss,7,54,False,1,True,0.802
1798edcc,B_1_1,100,far in,7,27,True,1,True,0.703
1798edcc,B_1_10,200,far in,7,34,True,1,True,0.504
1798edcc,B_1_11,100,close in,7,9,True,1,True,0.72
1798edcc,B_1_12,200,close in,7,10,True,1,True,0.623
1798edcc,B_1_13,100,close miss,7,26,False,1,True,0.9440000000000001
1798edcc,B_1_14,200,close miss,7,53,False,1,True,0.503
1798edcc,B_1_15,100,far miss,7,6,False,1,False,0.919
1798edcc,B_1_2,200,far in,7,47,True,1,True,0.35200000000000004
1798edcc,B_1_3,100,close in,7,29,True,1,True,0.43799999999999994
1798edcc,B_1_4,200,close in,7,23,True,1,True,0.9690000000000001
1798edcc,B_1_5,100,close miss,7,24,False,1,True,0.991
1798edcc,B_1_6,200,close miss,7,1,False,1,True,1.7109999999999999
1798edcc,B_1_7,100,far miss,7,8,False,1,True,0.8079999999999999
1798edcc,B_1_8,200,far miss,7,31,False,1,False,0.76
1798edcc,B_1_9,100,far in,7,51,True,1,True,0.904
1798edcc,B_2_0,200,far miss,7,32,False,2,False,0.777
1798edcc,B_2_1,100,far in,7,48,True,2,True,1.9669999999999999
1798edcc,B_2_10,200,far in,7,4,True,2,True,2.0269999999999997
1798edcc,B_2_11,100,close in,7,46,True,2,False,0.92
1798edcc,B_2_12,200,close in,7,33,True,2,True,2.279
1798edcc,B_2_13,100,close miss,7,20,False,2,False,1.136
1798edcc,B_2_14,200,close miss,7,16,False,2,True,1.136
1798edcc,B_2_15,100,far miss,7,41,False,2,False,1.048
1798edcc,B_2_2,200,far in,7,45,True,2,True,0.912
1798edcc,B_2_3,100,close in,7,30,True,2,False,0.688
1798edcc,B_2_4,200,close in,7,2,True,2,True,2.136
1798edcc,B_2_5,100,close miss,7,55,False,2,False,0.392
1798edcc,B_2_6,200,close miss,7,12,False,2,False,1.7480000000000002
1798edcc,B_2_7,100,far miss,7,36,False,2,False,1.032
1798edcc,B_2_8,200,far miss,7,15,False,2,False,1.507
1798edcc,B_2_9,100,far in,7,50,True,2,False,0.841
179fa773,B_0_0,100,close miss,4,41,False,0,False,3.031
179fa773,B_0_1,200,close miss,4,3,False,0,False,1.311
179fa773,B_0_10,100,far miss,4,39,False,0,False,0.815
179fa773,B_0_11,200,far miss,4,36,False,0,True,3.279
179fa773,B_0_12,100,far in,4,53,True,0,True,1.133
179fa773,B_0_13,200,far in,4,5,True,0,True,2.6639999999999997
179fa773,B_0_14,100,close in,4,10,True,0,True,0.8859999999999999
179fa773,B_0_15,200,close in,4,11,True,0,False,2.895
179fa773,B_0_2,100,far miss,4,34,False,0,False,0.973
179fa773,B_0_3,200,far miss,4,24,False,0,False,1.304
179fa773,B_0_4,100,far in,4,1,True,0,True,3.633
179fa773,B_0_5,200,far in,4,15,True,0,True,0.618
179fa773,B_0_6,100,close in,4,32,True,0,True,0.727
179fa773,B_0_7,200,close in,4,47,True,0,True,0.767
179fa773,B_0_8,100,close miss,4,16,False,0,False,1.663
179fa773,B_0_9,200,close miss,4,44,False,0,False,1.38
179fa773,B_1_0,100,close miss,4,13,False,1,True,2.303
179fa773,B_1_1,200,close miss,4,30,False,1,True,0.927
179fa773,B_1_10,100,far miss,4,19,False,1,False,1.295
179fa773,B_1_11,200,far miss,4,43,False,1,False,1.4709999999999999
179fa773,B_1_12,100,far in,4,25,True,1,True,2.71
179fa773,B_1_13,200,far in,4,54,True,1,False,1.91
179fa773,B_1_14,100,close in,4,40,True,1,True,2.055
179fa773,B_1_15,200,close in,4,8,True,1,False,2.375
179fa773,B_1_2,100,far miss,4,45,False,1,True,1.391
179fa773,B_1_3,200,far miss,4,2,False,1,True,1.101
179fa773,B_1_4,100,far in,4,31,True,1,False,1.55
179fa773,B_1_5,200,far in,4,6,True,1,False,1.5830000000000002
179fa773,B_1_6,100,close in,4,48,True,1,True,2.17
179fa773,B_1_7,200,close in,4,17,True,1,False,1.871
179fa773,B_1_8,100,close miss,4,4,False,1,False,1.574
179fa773,B_1_9,200,close miss,4,55,False,1,False,1.9969999999999999
179fa773,B_2_0,100,close miss,4,52,False,2,False,2.0709999999999997
179fa773,B_2_1,200,close miss,4,23,False,2,True,1.8630000000000002
179fa773,B_2_10,100,far miss,4,33,False,2,True,0.863
179fa773,B_2_11,200,far miss,4,20,False,2,True,2.414
179fa773,B_2_12,100,far in,4,50,True,2,False,1.071
179fa773,B_2_13,200,far in,4,18,True,2,True,2.174
179fa773,B_2_14,100,close in,4,9,True,2,False,1.9269999999999998
179fa773,B_2_15,200,close in,4,37,True,2,False,1.3030000000000002
179fa773,B_2_2,100,far miss,4,51,False,2,False,2.71
179fa773,B_2_3,200,far miss,4,26,False,2,True,4.735
179fa773,B_2_4,100,far in,4,38,True,2,False,1.686
179fa773,B_2_5,200,far in,4,12,True,2,False,1.726
179fa773,B_2_6,100,close in,4,29,True,2,False,1.767
179fa773,B_2_7,200,close in,4,22,True,2,True,2.805
179fa773,B_2_8,100,close miss,4,27,False,2,False,1.439
179fa773,B_2_9,200,close miss,4,46,False,2,True,2.119
19b1479c,B_0_0,200,far in,1,40,True,0,True,0.377
19b1479c,B_0_1,100,close in,1,17,True,0,True,2.295
19b1479c,B_0_10,200,close in,1,50,True,0,True,0.935
19b1479c,B_0_11,100,close miss,1,1,False,0,True,2.812
19b1479c,B_0_12,200,close miss,1,31,False,0,False,0.415
19b1479c,B_0_13,100,far miss,1,20,False,0,False,0.579
19b1479c,B_0_14,200,far miss,1,22,False,0,False,0.868
19b1479c,B_0_15,100,far in,1,32,True,0,True,1.165
19b1479c,B_0_2,200,close in,1,53,True,0,True,0.544
19b1479c,B_0_3,100,close miss,1,23,False,0,False,1.311
19b1479c,B_0_4,200,close miss,1,15,False,0,True,3.153
19b1479c,B_0_5,100,far miss,1,19,False,0,False,1.588
19b1479c,B_0_6,200,far miss,1,29,False,0,False,0.43799999999999994
19b1479c,B_0_7,100,far in,1,48,True,0,True,0.872
19b1479c,B_0_8,200,far in,1,6,True,0,True,1.9609999999999999
19b1479c,B_0_9,100,close in,1,41,True,0,True,2.611
19b1479c,B_1_0,200,far in,1,38,True,1,True,0.34600000000000003
19b1479c,B_1_1,100,close in,1,44,True,1,False,0.514
19b1479c,B_1_10,200,close in,1,45,True,1,True,0.518
19b1479c,B_1_11,100,close miss,1,47,False,1,False,1.2890000000000001
19b1479c,B_1_12,200,close miss,1,9,False,1,True,1.406
19b1479c,B_1_13,100,far miss,1,33,False,1,False,2.373
19b1479c,B_1_14,200,far miss,1,43,False,1,False,1.103
19b1479c,B_1_15,100,far in,1,12,True,1,True,4.793
19b1479c,B_1_2,200,close in,1,2,True,1,False,1.111
19b1479c,B_1_3,100,close miss,1,16,False,1,True,1.013
19b1479c,B_1_4,200,close miss,1,51,False,1,False,1.291
19b1479c,B_1_5,100,far miss,1,34,False,1,False,0.509
19b1479c,B_1_6,200,far miss,1,13,False,1,False,1.28
19b1479c,B_1_7,100,far in,1,30,True,1,True,0.588
19b1479c,B_1_8,200,far in,1,10,True,1,True,1.3090000000000002
19b1479c,B_1_9,100,close in,1,26,True,1,True,3.5589999999999997
19b1479c,B_2_0,200,far in,1,24,True,2,True,1.804
19b1479c,B_2_1,100,close in,1,37,True,2,True,0.635
19b1479c,B_2_10,200,close in,1,25,True,2,False,1.209
19b1479c,B_2_11,100,close miss,1,52,False,2,False,0.9109999999999999
19b1479c,B_2_12,200,close miss,1,27,False,2,False,0.598
19b1479c,B_2_13,100,far miss,1,8,False,2,True,0.569
19b1479c,B_2_14,200,far miss,1,54,False,2,True,1.3780000000000001
19b1479c,B_2_15,100,far in,1,36,True,2,True,1.1840000000000002
19b1479c,B_2_2,200,close in,1,11,True,2,False,0.779
19b1479c,B_2_3,100,close miss,1,39,False,2,True,1.7480000000000002
19b1479c,B_2_4,200,close miss,1,55,False,2,False,1.146
19b1479c,B_2_5,100,far miss,1,18,False,2,False,0.787
19b1479c,B_2_6,200,far miss,1,46,False,2,False,0.409
19b1479c,B_2_7,100,far in,1,5,True,2,False,1.5519999999999998
19b1479c,B_2_8,200,far in,1,3,True,2,True,1.7009999999999998
19b1479c,B_2_9,100,close in,1,4,True,2,False,1.787
19c418cd,B_0_0,100,far in,0,11,True,0,True,1.6269999999999998
19c418cd,B_0_1,200,far in,0,34,True,0,True,0.996
19c418cd,B_0_10,100,close in,0,25,True,0,True,2.884
19c418cd,B_0_11,200,close in,0,1,True,0,True,2.101
19c418cd,B_0_12,100,close miss,0,18,False,0,False,0.75
19c418cd,B_0_13,200,close miss,0,50,False,0,True,0.892
19c418cd,B_0_14,100,far miss,0,17,False,0,False,1.2690000000000001
19c418cd,B_0_15,200,far miss,0,2,False,0,False,1.301
19c418cd,B_0_2,100,close in,0,4,True,0,True,3.676
19c418cd,B_0_3,200,close in,0,32,True,0,False,1.065
19c418cd,B_0_4,100,close miss,0,54,False,0,False,0.865
19c418cd,B_0_5,200,close miss,0,10,False,0,False,1.805
19c418cd,B_0_6,100,far miss,0,46,False,0,False,0.46399999999999997
19c418cd,B_0_7,200,far miss,0,40,False,0,False,0.49
19c418cd,B_0_8,100,far in,0,37,True,0,True,0.7120000000000001
19c418cd,B_0_9,200,far in,0,48,True,0,True,0.743
19c418cd,B_1_0,100,far in,0,13,True,1,False,1.83
19c418cd,B_1_1,200,far in,0,9,True,1,False,3.924
19c418cd,B_1_10,100,close in,0,23,True,1,False,1.013
19c418cd,B_1_11,200,close in,0,33,True,1,True,0.654
19c418cd,B_1_12,100,close miss,0,39,False,1,False,1.3359999999999999
19c418cd,B_1_13,200,close miss,0,3,False,1,True,1.1520000000000001
19c418cd,B_1_14,100,far miss,0,29,False,1,False,0.5489999999999999
19c418cd,B_1_15,200,far miss,0,27,False,1,False,0.757
19c418cd,B_1_2,100,close in,0,43,True,1,False,0.604
19c418cd,B_1_3,200,close in,0,45,True,1,False,4.246
19c418cd,B_1_4,100,close miss,0,38,False,1,False,0.504
19c418cd,B_1_5,200,close miss,0,52,False,1,False,0.8320000000000001
19c418cd,B_1_6,100,far miss,0,15,False,1,False,1.5830000000000002
19c418cd,B_1_7,200,far miss,0,20,False,1,False,1.0859999999999999
19c418cd,B_1_8,100,far in,0,22,True,1,False,1.9
19c418cd,B_1_9,200,far in,0,51,True,1,True,1.8319999999999999
19c418cd,B_2_0,100,far in,0,53,True,2,True,2.569
19c418cd,B_2_1,200,far in,0,6,True,2,True,2.149
19c418cd,B_2_10,100,close in,0,31,True,2,True,1.189
19c418cd,B_2_11,200,close in,0,24,True,2,True,1.401
19c418cd,B_2_12,100,close miss,0,36,False,2,True,1.252
19c418cd,B_2_13,200,close miss,0,26,False,2,False,1.327
19c418cd,B_2_14,100,far miss,0,12,False,2,False,0.831
19c418cd,B_2_15,200,far miss,0,44,False,2,False,1.55
19c418cd,B_2_2,100,close in,0,55,True,2,True,3.113
19c418cd,B_2_3,200,close in,0,19,True,2,True,1.847
19c418cd,B_2_4,100,close miss,0,47,False,2,True,1.379
19c418cd,B_2_5,200,close miss,0,5,False,2,False,2.381
19c418cd,B_2_6,100,far miss,0,8,False,2,False,1.905
19c418cd,B_2_7,200,far miss,0,30,False,2,False,1.0859999999999999
19c418cd,B_2_8,100,far in,0,16,True,2,False,1.48
19c418cd,B_2_9,200,far in,0,41,True,2,False,1.229
1c4d1c48,B_0_0,200,far miss,7,17,False,0,False,0.868
1c4d1c48,B_0_1,100,far in,7,1,True,0,False,1.4769999999999999
1c4d1c48,B_0_10,200,far in,7,50,True,0,True,0.396
1c4d1c48,B_0_11,100,close in,7,6,True,0,False,1.131
1c4d1c48,B_0_12,200,close in,7,54,True,0,False,0.6579999999999999
1c4d1c48,B_0_13,100,close miss,7,10,False,0,False,1.429
1c4d1c48,B_0_14,200,close miss,7,31,False,0,False,0.7609999999999999
1c4d1c48,B_0_15,100,far miss,7,55,False,0,False,0.95
1c4d1c48,B_0_2,200,far in,7,36,True,0,True,5.796
1c4d1c48,B_0_3,100,close in,7,47,True,0,True,0.46799999999999997
1c4d1c48,B_0_4,200,close in,7,15,True,0,True,0.86
1c4d1c48,B_0_5,100,close miss,7,24,False,0,True,4.311
1c4d1c48,B_0_6,200,close miss,7,22,False,0,True,0.642
1c4d1c48,B_0_7,100,far miss,7,20,False,0,False,0.998
1c4d1c48,B_0_8,200,far miss,7,25,False,0,False,1.67
1c4d1c48,B_0_9,100,far in,7,3,True,0,True,1.012
1c4d1c48,B_1_0,200,far miss,7,40,False,1,False,1.337
1c4d1c48,B_1_1,100,far in,7,38,True,1,False,0.708
1c4d1c48,B_1_10,200,far in,7,13,True,1,True,2.2430000000000003
1c4d1c48,B_1_11,100,close in,7,5,True,1,True,0.889
1c4d1c48,B_1_12,200,close in,7,19,True,1,True,1.614
1c4d1c48,B_1_13,100,close miss,7,53,False,1,True,0.711
1c4d1c48,B_1_14,200,close miss,7,32,False,1,False,1.0190000000000001
1c4d1c48,B_1_15,100,far miss,7,26,False,1,False,1.601
1c4d1c48,B_1_2,200,far in,7,12,True,1,True,1.01
1c4d1c48,B_1_3,100,close in,7,43,True,1,True,1.786
1c4d1c48,B_1_4,200,close in,7,39,True,1,False,1.1540000000000001
1c4d1c48,B_1_5,100,close miss,7,29,False,1,False,1.5630000000000002
1c4d1c48,B_1_6,200,close miss,7,44,False,1,False,1.169
1c4d1c48,B_1_7,100,far miss,7,45,False,1,False,0.511
1c4d1c48,B_1_8,200,far miss,7,33,False,1,True,1.148
1c4d1c48,B_1_9,100,far in,7,51,True,1,False,0.9570000000000001
1c4d1c48,B_2_0,200,far miss,7,48,False,2,True,1.6059999999999999
1c4d1c48,B_2_1,100,far in,7,18,True,2,False,2.58
1c4d1c48,B_2_10,200,far in,7,52,True,2,True,0.529
1c4d1c48,B_2_11,100,close in,7,4,True,2,False,1.044
1c4d1c48,B_2_12,200,close in,7,8,True,2,False,0.871
1c4d1c48,B_2_13,100,close miss,7,16,False,2,True,1.5119999999999998
1c4d1c48,B_2_14,200,close miss,7,41,False,2,True,0.6920000000000001
1c4d1c48,B_2_15,100,far miss,7,34,False,2,False,1.5759999999999998
1c4d1c48,B_2_2,200,far in,7,23,True,2,True,3.465
1c4d1c48,B_2_3,100,close in,7,46,True,2,True,0.664
1c4d1c48,B_2_4,200,close in,7,27,True,2,True,1.4409999999999998
1c4d1c48,B_2_5,100,close miss,7,9,False,2,True,0.98
1c4d1c48,B_2_6,200,close miss,7,11,False,2,True,1.62
1c4d1c48,B_2_7,100,far miss,7,30,False,2,True,1.4669999999999999
1c4d1c48,B_2_8,200,far miss,7,37,False,2,True,1.381
1c4d1c48,B_2_9,100,far in,7,2,True,2,False,4.77
1cef0617,B_0_0,200,close in,3,55,True,0,False,1.024
1cef0617,B_0_1,100,close miss,3,52,False,0,True,0.752
1cef0617,B_0_10,200,close miss,3,39,False,0,False,0.8270000000000001
1cef0617,B_0_11,100,far miss,3,45,False,0,False,0.344
1cef0617,B_0_12,200,far miss,3,48,False,0,False,0.341
1cef0617,B_0_13,100,far in,3,33,True,0,True,0.368
1cef0617,B_0_14,200,far in,3,27,True,0,True,0.32799999999999996
1cef0617,B_0_15,100,close in,3,34,True,0,True,0.528
1cef0617,B_0_2,200,close miss,3,32,False,0,False,0.728
1cef0617,B_0_3,100,far miss,3,51,False,0,False,0.36200000000000004
1cef0617,B_0_4,200,far miss,3,4,False,0,False,0.753
1cef0617,B_0_5,100,far in,3,25,True,0,True,0.455
1cef0617,B_0_6,200,far in,3,50,True,0,True,0.488
1cef0617,B_0_7,100,close in,3,12,True,0,True,1.064
1cef0617,B_0_8,200,close in,3,16,True,0,False,0.888
1cef0617,B_0_9,100,close miss,3,15,False,0,False,0.64
1cef0617,B_1_0,200,close in,3,54,True,1,True,0.529
1cef0617,B_1_1,100,close miss,3,2,False,1,True,0.8240000000000001
1cef0617,B_1_10,200,close miss,3,11,False,1,True,0.7120000000000001
1cef0617,B_1_11,100,far miss,3,23,False,1,False,0.33899999999999997
1cef0617,B_1_12,200,far miss,3,10,False,1,False,0.7979999999999999
1cef0617,B_1_13,100,far in,3,36,True,1,True,0.8640000000000001
1cef0617,B_1_14,200,far in,3,26,True,1,False,2.327
1cef0617,B_1_15,100,close in,3,30,True,1,False,1.296
1cef0617,B_1_2,200,close miss,3,37,False,1,False,0.42700000000000005
1cef0617,B_1_3,100,far miss,3,3,False,1,False,0.664
1cef0617,B_1_4,200,far miss,3,20,False,1,False,1.1
1cef0617,B_1_5,100,far in,3,18,True,1,True,0.546
1cef0617,B_1_6,200,far in,3,9,True,1,True,0.6759999999999999
1cef0617,B_1_7,100,close in,3,6,True,1,True,0.616
1cef0617,B_1_8,200,close in,3,47,True,1,True,0.84
1cef0617,B_1_9,100,close miss,3,31,False,1,False,0.376
1cef0617,B_2_0,200,close in,3,22,True,2,True,3.4960000000000004
1cef0617,B_2_1,100,close miss,3,43,False,2,False,2.048
1cef0617,B_2_10,200,close miss,3,24,False,2,False,1.168
1cef0617,B_2_11,100,far miss,3,19,False,2,False,0.4
1cef0617,B_2_12,200,far miss,3,5,False,2,False,1.536
1cef0617,B_2_13,100,far in,3,1,True,2,True,2.319
1cef0617,B_2_14,200,far in,3,38,True,2,True,1.297
1cef0617,B_2_15,100,close in,3,29,True,2,True,2.2159999999999997
1cef0617,B_2_2,200,close miss,3,44,False,2,True,0.479
1cef0617,B_2_3,100,far miss,3,41,False,2,False,0.5760000000000001
1cef0617,B_2_4,200,far miss,3,40,False,2,False,1.023
1cef0617,B_2_5,100,far in,3,17,True,2,True,0.8240000000000001
1cef0617,B_2_6,200,far in,3,53,True,2,True,1.136
1cef0617,B_2_7,100,close in,3,8,True,2,True,0.912
1cef0617,B_2_8,200,close in,3,46,True,2,True,1.496
1cef0617,B_2_9,100,close miss,3,13,False,2,False,0.6
1d53111a,B_0_0,200,far miss,7,15,False,0,False,0.5670000000000001
1d53111a,B_0_1,100,far in,7,31,True,0,True,0.376
1d53111a,B_0_10,200,far in,7,1,True,0,True,0.447
1d53111a,B_0_11,100,close in,7,41,True,0,True,0.359
1d53111a,B_0_12,200,close in,7,27,True,0,True,0.37
1d53111a,B_0_13,100,close miss,7,44,False,0,False,0.34600000000000003
1d53111a,B_0_14,200,close miss,7,29,False,0,False,0.354
1d53111a,B_0_15,100,far miss,7,2,False,0,False,0.877
1d53111a,B_0_2,200,far in,7,38,True,0,True,0.40399999999999997
1d53111a,B_0_3,100,close in,7,13,True,0,True,0.355
1d53111a,B_0_4,200,close in,7,39,True,0,True,1.1909999999999998
1d53111a,B_0_5,100,close miss,7,45,False,0,False,2.036
1d53111a,B_0_6,200,close miss,7,26,False,0,True,1.676
1d53111a,B_0_7,100,far miss,7,40,False,0,False,0.551
1d53111a,B_0_8,200,far miss,7,6,False,0,False,0.826
1d53111a,B_0_9,100,far in,7,22,True,0,True,0.266
1d53111a,B_1_0,200,far miss,7,3,False,1,False,0.835
1d53111a,B_1_1,100,far in,7,36,True,1,False,1.015
1d53111a,B_1_10,200,far in,7,5,True,1,True,0.426
1d53111a,B_1_11,100,close in,7,9,True,1,True,0.7929999999999999
1d53111a,B_1_12,200,close in,7,19,True,1,True,0.433
1d53111a,B_1_13,100,close miss,7,17,False,1,True,0.511
1d53111a,B_1_14,200,close miss,7,47,False,1,False,2.6310000000000002
1d53111a,B_1_15,100,far miss,7,53,False,1,False,0.682
1d53111a,B_1_2,200,far in,7,24,True,1,True,3.384
1d53111a,B_1_3,100,close in,7,52,True,1,False,1.39
1d53111a,B_1_4,200,close in,7,37,True,1,True,0.317
1d53111a,B_1_5,100,close miss,7,20,False,1,True,1.364
1d53111a,B_1_6,200,close miss,7,32,False,1,True,2.168
1d53111a,B_1_7,100,far miss,7,46,False,1,False,0.414
1d53111a,B_1_8,200,far miss,7,50,False,1,False,0.594
1d53111a,B_1_9,100,far in,7,4,True,1,False,1.9669999999999999
1d53111a,B_2_0,200,far miss,7,34,False,2,False,1.482
1d53111a,B_2_1,100,far in,7,25,True,2,True,0.9259999999999999
1d53111a,B_2_10,200,far in,7,23,True,2,True,0.585
1d53111a,B_2_11,100,close in,7,48,True,2,True,1.6680000000000001
1d53111a,B_2_12,200,close in,7,10,True,2,False,1.196
1d53111a,B_2_13,100,close miss,7,8,False,2,False,2.562
1d53111a,B_2_14,200,close miss,7,55,False,2,False,2.487
1d53111a,B_2_15,100,far miss,7,43,False,2,False,1.199
1d53111a,B_2_2,200,far in,7,12,True,2,True,0.5670000000000001
1d53111a,B_2_3,100,close in,7,11,True,2,True,0.8420000000000001
1d53111a,B_2_4,200,close in,7,30,True,2,True,0.507
1d53111a,B_2_5,100,close miss,7,18,False,2,True,4.388999999999999
1d53111a,B_2_6,200,close miss,7,54,False,2,False,1.38
1d53111a,B_2_7,100,far miss,7,33,False,2,False,0.501
1d53111a,B_2_8,200,far miss,7,51,False,2,False,1.252
1d53111a,B_2_9,100,far in,7,16,True,2,True,0.46299999999999997
1f667191,B_0_0,100,close in,2,55,True,0,True,0.307
1f667191,B_0_1,200,close in,2,46,True,0,True,0.177
1f667191,B_0_10,100,close miss,2,22,False,0,True,0.41
1f667191,B_0_11,200,close miss,2,30,False,0,True,0.561
1f667191,B_0_12,100,far miss,2,2,False,0,False,1.05
1f667191,B_0_13,200,far miss,2,47,False,0,True,0.649
1f667191,B_0_14,100,far in,2,20,True,0,True,0.545
1f667191,B_0_15,200,far in,2,44,True,0,True,0.9590000000000001
1f667191,B_0_2,100,close miss,2,33,False,0,False,0.768
1f667191,B_0_3,200,close miss,2,52,False,0,False,1.08
1f667191,B_0_4,100,far miss,2,54,False,0,False,1.216
1f667191,B_0_5,200,far miss,2,24,False,0,False,2.005
1f667191,B_0_6,100,far in,2,41,True,0,True,0.7140000000000001
1f667191,B_0_7,200,far in,2,25,True,0,True,0.429
1f667191,B_0_8,100,close in,2,53,True,0,True,1.516
1f667191,B_0_9,200,close in,2,13,True,0,True,1.9409999999999998
1f667191,B_1_0,100,close in,2,19,True,1,False,0.833
1f667191,B_1_1,200,close in,2,16,True,1,True,0.696
1f667191,B_1_10,100,close miss,2,18,False,1,False,1.62
1f667191,B_1_11,200,close miss,2,4,False,1,True,1.42
1f667191,B_1_12,100,far miss,2,43,False,1,False,1.4280000000000002
1f667191,B_1_13,200,far miss,2,29,False,1,False,2.043
1f667191,B_1_14,100,far in,2,10,True,1,False,3.1689999999999996
1f667191,B_1_15,200,far in,2,5,True,1,True,1.7930000000000001
1f667191,B_1_2,100,close miss,2,36,False,1,True,0.872
1f667191,B_1_3,200,close miss,2,11,False,1,True,2.156
1f667191,B_1_4,100,far miss,2,1,False,1,False,4.75
1f667191,B_1_5,200,far miss,2,45,False,1,False,0.976
1f667191,B_1_6,100,far in,2,3,True,1,False,1.1059999999999999
1f667191,B_1_7,200,far in,2,9,True,1,False,2.888
1f667191,B_1_8,100,close in,2,23,True,1,False,0.91
1f667191,B_1_9,200,close in,2,27,True,1,False,2.1719999999999997
1f667191,B_2_0,100,close in,2,32,True,2,True,0.547
1f667191,B_2_1,200,close in,2,37,True,2,True,1.242
1f667191,B_2_10,100,close miss,2,26,False,2,True,0.98
1f667191,B_2_11,200,close miss,2,8,False,2,True,1.768
1f667191,B_2_12,100,far miss,2,6,False,2,True,1.652
1f667191,B_2_13,200,far miss,2,48,False,2,False,1.23
1f667191,B_2_14,100,far in,2,39,True,2,False,0.44299999999999995
1f667191,B_2_15,200,far in,2,34,True,2,True,0.376
1f667191,B_2_2,100,close miss,2,40,False,2,True,0.863
1f667191,B_2_3,200,close miss,2,17,False,2,True,0.767
1f667191,B_2_4,100,far miss,2,51,False,2,False,1.909
1f667191,B_2_5,200,far miss,2,12,False,2,True,1.4180000000000001
1f667191,B_2_6,100,far in,2,50,True,2,False,1.527
1f667191,B_2_7,200,far in,2,31,True,2,True,0.935
1f667191,B_2_8,100,close in,2,15,True,2,True,0.569
1f667191,B_2_9,200,close in,2,38,True,2,True,0.525
1fcf19ed,B_0_0,200,far miss,7,19,False,0,False,0.539
1fcf19ed,B_0_1,100,far in,7,48,True,0,True,0.607
1fcf19ed,B_0_10,200,far in,7,15,True,0,True,0.4
1fcf19ed,B_0_11,100,close in,7,47,True,0,True,0.504
1fcf19ed,B_0_12,200,close in,7,34,True,0,True,0.7809999999999999
1fcf19ed,B_0_13,100,close miss,7,8,False,0,False,0.73
1fcf19ed,B_0_14,200,close miss,7,38,False,0,False,0.953
1fcf19ed,B_0_15,100,far miss,7,1,False,0,False,0.9440000000000001
1fcf19ed,B_0_2,200,far in,7,55,True,0,True,0.5770000000000001
1fcf19ed,B_0_3,100,close in,7,51,True,0,True,0.415
1fcf19ed,B_0_4,200,close in,7,27,True,0,True,0.54
1fcf19ed,B_0_5,100,close miss,7,40,False,0,False,0.698
1fcf19ed,B_0_6,200,close miss,7,2,False,0,True,0.267
1fcf19ed,B_0_7,100,far miss,7,33,False,0,False,0.541
1fcf19ed,B_0_8,200,far miss,7,4,False,0,False,0.672
1fcf19ed,B_0_9,100,far in,7,13,True,0,True,0.495
1fcf19ed,B_1_0,200,far miss,7,11,False,1,True,0.5870000000000001
1fcf19ed,B_1_1,100,far in,7,12,True,1,False,0.897
1fcf19ed,B_1_10,200,far in,7,24,True,1,True,0.713
1fcf19ed,B_1_11,100,close in,7,45,True,1,False,0.609
1fcf19ed,B_1_12,200,close in,7,32,True,1,True,0.447
1fcf19ed,B_1_13,100,close miss,7,30,False,1,True,0.8009999999999999
1fcf19ed,B_1_14,200,close miss,7,46,False,1,False,0.36700000000000005
1fcf19ed,B_1_15,100,far miss,7,3,False,1,False,0.9640000000000001
1fcf19ed,B_1_2,200,far in,7,31,True,1,True,0.455
1fcf19ed,B_1_3,100,close in,7,52,True,1,True,0.525
1fcf19ed,B_1_4,200,close in,7,43,True,1,True,0.775
1fcf19ed,B_1_5,100,close miss,7,23,False,1,True,0.525
1fcf19ed,B_1_6,200,close miss,7,50,False,1,True,0.6779999999999999
1fcf19ed,B_1_7,100,far miss,7,37,False,1,False,0.55
1fcf19ed,B_1_8,200,far miss,7,10,False,1,False,0.27399999999999997
1fcf19ed,B_1_9,100,far in,7,22,True,1,False,0.41100000000000003
1fcf19ed,B_2_0,200,far miss,7,9,False,2,True,1.022
1fcf19ed,B_2_1,100,far in,7,53,True,2,False,0.479
1fcf19ed,B_2_10,200,far in,7,18,True,2,True,0.74
1fcf19ed,B_2_11,100,close in,7,39,True,2,False,0.669
1fcf19ed,B_2_12,200,close in,7,26,True,2,False,1.216
1fcf19ed,B_2_13,100,close miss,7,16,False,2,False,0.612
1fcf19ed,B_2_14,200,close miss,7,44,False,2,False,2.235
1fcf19ed,B_2_15,100,far miss,7,54,False,2,False,0.601
1fcf19ed,B_2_2,200,far in,7,41,True,2,True,0.619
1fcf19ed,B_2_3,100,close in,7,20,True,2,False,0.5379999999999999
1fcf19ed,B_2_4,200,close in,7,29,True,2,True,2.269
1fcf19ed,B_2_5,100,close miss,7,6,False,2,True,1.3259999999999998
1fcf19ed,B_2_6,200,close miss,7,5,False,2,True,0.61
1fcf19ed,B_2_7,100,far miss,7,17,False,2,True,0.36700000000000005
1fcf19ed,B_2_8,200,far miss,7,36,False,2,False,1.055
1fcf19ed,B_2_9,100,far in,7,25,True,2,True,0.7390000000000001
2161b079,B_0_0,100,far miss,6,33,False,0,False,1.16
2161b079,B_0_1,200,far miss,6,2,False,0,False,1.665
2161b079,B_0_10,100,far in,6,1,True,0,False,3.4589999999999996
2161b079,B_0_11,200,far in,6,15,True,0,True,0.466
2161b079,B_0_12,100,close in,6,10,True,0,True,0.899
2161b079,B_0_13,200,close in,6,9,True,0,True,0.858
2161b079,B_0_14,100,close miss,6,46,False,0,False,1.435
2161b079,B_0_15,200,close miss,6,13,False,0,True,1.67
2161b079,B_0_2,100,far in,6,19,True,0,True,0.9209999999999999
2161b079,B_0_3,200,far in,6,38,True,0,True,0.43700000000000006
2161b079,B_0_4,100,close in,6,36,True,0,True,0.741
2161b079,B_0_5,200,close in,6,26,True,0,True,1.768
2161b079,B_0_6,100,close miss,6,11,False,0,False,1.844
2161b079,B_0_7,200,close miss,6,20,False,0,False,2.255
2161b079,B_0_8,100,far miss,6,25,False,0,False,1.287
2161b079,B_0_9,200,far miss,6,22,False,0,False,1.504
2161b079,B_1_0,100,far miss,6,52,False,1,False,0.275
2161b079,B_1_1,200,far miss,6,48,False,1,True,0.24
2161b079,B_1_10,100,far in,6,6,True,1,False,2.355
2161b079,B_1_11,200,far in,6,37,True,1,True,0.755
2161b079,B_1_12,100,close in,6,16,True,1,False,2.28
2161b079,B_1_13,200,close in,6,17,True,1,False,1.025
2161b079,B_1_14,100,close miss,6,54,False,1,False,0.615
2161b079,B_1_15,200,close miss,6,29,False,1,False,1.1179999999999999
2161b079,B_1_2,100,far in,6,24,True,1,True,1.429
2161b079,B_1_3,200,far in,6,55,True,1,True,1.0070000000000001
2161b079,B_1_4,100,close in,6,3,True,1,False,2.617
2161b079,B_1_5,200,close in,6,53,True,1,True,2.011
2161b079,B_1_6,100,close miss,6,8,False,1,True,3.213
2161b079,B_1_7,200,close miss,6,34,False,1,False,0.782
2161b079,B_1_8,100,far miss,6,47,False,1,False,1.511
2161b079,B_1_9,200,far miss,6,50,False,1,False,0.535
2161b079,B_2_0,100,far miss,6,23,False,2,False,2.9
2161b079,B_2_1,200,far miss,6,18,False,2,False,1.9169999999999998
2161b079,B_2_10,100,far in,6,4,True,2,True,2.892
2161b079,B_2_11,200,far in,6,12,True,2,True,2.8139999999999996
2161b079,B_2_12,100,close in,6,39,True,2,False,1.7930000000000001
2161b079,B_2_13,200,close in,6,32,True,2,True,1.469
2161b079,B_2_14,100,close miss,6,41,False,2,False,2.009
2161b079,B_2_15,200,close miss,6,31,False,2,True,1.706
2161b079,B_2_2,100,far in,6,44,True,2,True,1.207
2161b079,B_2_3,200,far in,6,30,True,2,True,0.6809999999999999
2161b079,B_2_4,100,close in,6,51,True,2,True,1.16
2161b079,B_2_5,200,close in,6,45,True,2,True,0.508
2161b079,B_2_6,100,close miss,6,40,False,2,True,1.4780000000000002
2161b079,B_2_7,200,close miss,6,5,False,2,True,2.428
2161b079,B_2_8,100,far miss,6,43,False,2,False,1.625
2161b079,B_2_9,200,far miss,6,27,False,2,False,0.968
22909f12,B_0_0,200,close in,3,47,True,0,True,0.079
22909f12,B_0_1,100,close miss,3,43,False,0,True,0.40700000000000003
22909f12,B_0_10,200,close miss,3,39,False,0,False,0.745
22909f12,B_0_11,100,far miss,3,55,False,0,True,0.166
22909f12,B_0_12,200,far miss,3,54,False,0,True,0.175
22909f12,B_0_13,100,far in,3,17,True,0,True,0.303
22909f12,B_0_14,200,far in,3,29,True,0,True,0.055999999999999994
22909f12,B_0_15,100,close in,3,26,True,0,True,0.215
22909f12,B_0_2,200,close miss,3,40,False,0,True,0.14300000000000002
22909f12,B_0_3,100,far miss,3,6,False,0,False,0.8059999999999999
22909f12,B_0_4,200,far miss,3,19,False,0,False,0.342
22909f12,B_0_5,100,far in,3,46,True,0,True,0.111
22909f12,B_0_6,200,far in,3,16,True,0,True,0.263
22909f12,B_0_7,100,close in,3,22,True,0,True,0.006999999999999999
22909f12,B_0_8,200,close in,3,45,True,0,False,0.135
22909f12,B_0_9,100,close miss,3,9,False,0,True,0.23199999999999998
22909f12,B_1_0,200,close in,3,52,True,1,True,0.177
22909f12,B_1_1,100,close miss,3,32,False,1,True,0.151
22909f12,B_1_10,200,close miss,3,3,False,1,False,0.575
22909f12,B_1_11,100,far miss,3,24,False,1,False,0.52
22909f12,B_1_12,200,far miss,3,50,False,1,True,0.111
22909f12,B_1_13,100,far in,3,13,True,1,True,0.009000000000000001
22909f12,B_1_14,200,far in,3,23,True,1,False,0.584
22909f12,B_1_15,100,close in,3,53,True,1,True,0.013999999999999999
22909f12,B_1_2,200,close miss,3,51,False,1,True,0.16699999999999998
22909f12,B_1_3,100,far miss,3,15,False,1,False,0.126
22909f12,B_1_4,200,far miss,3,12,False,1,True,0.615
22909f12,B_1_5,100,far in,3,31,True,1,True,0.935
22909f12,B_1_6,200,far in,3,18,True,1,True,0.782
22909f12,B_1_7,100,close in,3,44,True,1,True,0.152
22909f12,B_1_8,200,close in,3,4,True,1,False,0.359
22909f12,B_1_9,100,close miss,3,1,False,1,False,0.545
22909f12,B_2_0,200,close in,3,5,True,2,True,0.38299999999999995
22909f12,B_2_1,100,close miss,3,38,False,2,False,1.32
22909f12,B_2_10,200,close miss,3,25,False,2,False,0.321
22909f12,B_2_11,100,far miss,3,20,False,2,False,0.303
22909f12,B_2_12,200,far miss,3,2,False,2,True,0.623
22909f12,B_2_13,100,far in,3,33,True,2,False,0.285
22909f12,B_2_14,200,far in,3,37,True,2,True,0.11900000000000001
22909f12,B_2_15,100,close in,3,8,True,2,False,0.03
22909f12,B_2_2,200,close miss,3,27,False,2,False,0.873
22909f12,B_2_3,100,far miss,3,11,False,2,True,0.41600000000000004
22909f12,B_2_4,200,far miss,3,30,False,2,False,0.159
22909f12,B_2_5,100,far in,3,41,True,2,False,0.76
22909f12,B_2_6,200,far in,3,36,True,2,False,0.401
22909f12,B_2_7,100,close in,3,10,True,2,False,1.984
22909f12,B_2_8,200,close in,3,48,True,2,True,0.23199999999999998
22909f12,B_2_9,100,close miss,3,34,False,2,False,0.013000000000000001
2498b516,B_0_0,200,close miss,5,18,False,0,False,1.7280000000000002
2498b516,B_0_1,100,far miss,5,20,False,0,False,0.8140000000000001
2498b516,B_0_10,200,far miss,5,33,False,0,False,0.695
2498b516,B_0_11,100,far in,5,3,True,0,True,3.7760000000000002
2498b516,B_0_12,200,far in,5,32,True,0,True,0.305
2498b516,B_0_13,100,close in,5,52,True,0,True,1.071
2498b516,B_0_14,200,close in,5,51,True,0,True,1.2309999999999999
2498b516,B_0_15,100,close miss,5,1,False,0,True,1.729
2498b516,B_0_2,200,far miss,5,12,False,0,False,1.7269999999999999
2498b516,B_0_3,100,far in,5,29,True,0,True,0.335
2498b516,B_0_4,200,far in,5,9,True,0,True,2.895
2498b516,B_0_5,100,close in,5,15,True,0,False,0.655
2498b516,B_0_6,200,close in,5,27,True,0,True,0.33299999999999996
2498b516,B_0_7,100,close miss,5,25,False,0,False,0.6709999999999999
2498b516,B_0_8,200,close miss,5,6,False,0,False,0.831
2498b516,B_0_9,100,far miss,5,40,False,0,False,0.6859999999999999
2498b516,B_1_0,200,close miss,5,13,False,1,True,1.6640000000000001
2498b516,B_1_1,100,far miss,5,44,False,1,False,0.905
2498b516,B_1_10,200,far miss,5,10,False,1,False,2.759
2498b516,B_1_11,100,far in,5,8,True,1,False,1.903
2498b516,B_1_12,200,far in,5,48,True,1,True,1.12
2498b516,B_1_13,100,close in,5,37,True,1,False,1.663
2498b516,B_1_14,200,close in,5,50,True,1,True,0.831
2498b516,B_1_15,100,close miss,5,11,False,1,True,2.782
2498b516,B_1_2,200,far miss,5,16,False,1,True,1.071
2498b516,B_1_3,100,far in,5,22,True,1,True,0.44799999999999995
2498b516,B_1_4,200,far in,5,26,True,1,True,0.7020000000000001
2498b516,B_1_5,100,close in,5,19,True,1,False,0.943
2498b516,B_1_6,200,close in,5,5,True,1,True,1.6
2498b516,B_1_7,100,close miss,5,34,False,1,True,0.465
2498b516,B_1_8,200,close miss,5,45,False,1,True,0.494
2498b516,B_1_9,100,far miss,5,54,False,1,False,2.043
2498b516,B_2_0,200,close miss,5,47,False,2,True,0.5429999999999999
2498b516,B_2_1,100,far miss,5,30,False,2,True,0.128
2498b516,B_2_10,200,far miss,5,55,False,2,False,1.055
2498b516,B_2_11,100,far in,5,38,True,2,True,0.64
2498b516,B_2_12,200,far in,5,41,True,2,False,1.598
2498b516,B_2_13,100,close in,5,53,True,2,True,0.607
2498b516,B_2_14,200,close in,5,24,True,2,False,0.5920000000000001
2498b516,B_2_15,100,close miss,5,36,False,2,False,0.415
2498b516,B_2_2,200,far miss,5,46,False,2,False,1.0070000000000001
2498b516,B_2_3,100,far in,5,39,True,2,False,1.183
2498b516,B_2_4,200,far in,5,17,True,2,True,2.352
2498b516,B_2_5,100,close in,5,23,True,2,False,2.336
2498b516,B_2_6,200,close in,5,31,True,2,True,1.775
2498b516,B_2_7,100,close miss,5,4,False,2,False,1.264
2498b516,B_2_8,200,close miss,5,43,False,2,True,0.079
2498b516,B_2_9,100,far miss,5,2,False,2,False,1.104
267087a6,B_0_0,100,close miss,4,1,False,0,False,1.68
267087a6,B_0_1,200,close miss,4,11,False,0,False,0.593
267087a6,B_0_10,100,far miss,4,53,False,0,False,0.36700000000000005
267087a6,B_0_11,200,far miss,4,41,False,0,False,0.7040000000000001
267087a6,B_0_12,100,far in,4,38,True,0,True,0.35200000000000004
267087a6,B_0_13,200,far in,4,50,True,0,True,0.065
267087a6,B_0_14,100,close in,4,46,True,0,True,0.46399999999999997
267087a6,B_0_15,200,close in,4,2,True,0,True,1.567
267087a6,B_0_2,100,far miss,4,12,False,0,False,0.607
267087a6,B_0_3,200,far miss,4,36,False,0,False,0.321
267087a6,B_0_4,100,far in,4,37,True,0,True,0.35200000000000004
267087a6,B_0_5,200,far in,4,33,True,0,True,0.46399999999999997
267087a6,B_0_6,100,close in,4,9,True,0,True,7.876
267087a6,B_0_7,200,close in,4,10,True,0,False,0.768
267087a6,B_0_8,100,close miss,4,13,False,0,False,0.44799999999999995
267087a6,B_0_9,200,close miss,4,44,False,0,False,0.46399999999999997
267087a6,B_1_0,100,close miss,4,30,False,1,False,0.752
267087a6,B_1_1,200,close miss,4,47,False,1,False,1.249
267087a6,B_1_10,100,far miss,4,39,False,1,False,0.4
267087a6,B_1_11,200,far miss,4,19,False,1,False,0.46299999999999997
267087a6,B_1_12,100,far in,4,8,True,1,False,2.24
267087a6,B_1_13,200,far in,4,51,True,1,True,0.371
267087a6,B_1_14,100,close in,4,31,True,1,False,0.977
267087a6,B_1_15,200,close in,4,25,True,1,True,0.9440000000000001
267087a6,B_1_2,100,far miss,4,26,False,1,False,0.5579999999999999
267087a6,B_1_3,200,far miss,4,43,False,1,False,0.9129999999999999
267087a6,B_1_4,100,far in,4,16,True,1,True,0.657
267087a6,B_1_5,200,far in,4,32,True,1,True,1.04
267087a6,B_1_6,100,close in,4,45,True,1,False,0.511
267087a6,B_1_7,200,close in,4,27,True,1,True,0.4
